        t_i  t_i-(t)_N  (t_i-(t)_N)^2
0     346.0     96.945       9398.294
1     333.0     83.945       7046.729
2     343.0     93.945       8825.625
3     340.0     90.945       8270.957
4     320.0     70.945       5033.165
5     314.0     64.945       4217.827
6     320.0     70.945       5033.165
7     330.0     80.945       6552.061
8     314.0     64.945       4217.827
9     308.0     58.945       3474.489
10    333.0     83.945       7046.729
11    337.0     87.945       7734.288
12    310.0     60.945       3714.269
13    329.0     79.945       6391.171
14    315.0     65.945       4348.717
15    296.0     46.945       2203.814
16    330.0     80.945       6552.061
17    296.0     46.945       2203.814
18    312.0     62.945       3962.048
19    315.0     65.945       4348.717
20    318.0     68.945       4753.385
21    321.0     71.945       5176.054
22    300.0     50.945       2595.373
23    326.0     76.945       5920.502
24    311.0     61.945       3837.158
25    298.0     48.945       2395.593
26    293.0     43.945       1931.145
27    301.0     51.945       2698.262
28    315.0     65.945       4348.717
29    329.0     79.945       6391.171
30    303.0     53.945       2910.041
31    278.0     28.945        837.801
32    263.0     13.945        194.457
33    269.0     19.945        397.795
34    270.0     20.945        438.685
35    252.0      2.945          8.672
36    275.0     25.945        673.133
37    282.0     32.945       1085.360
38    264.0     14.945        223.347
39    247.0     -2.055          4.224
40    275.0     25.945        673.133
41    262.0     12.945        167.568
42    251.0      1.945          3.782
43    258.0      8.945         80.009
44    247.0     -2.055          4.224
45    285.0     35.945       1292.029
46    273.0     23.945        573.353
47    270.0     20.945        438.685
48    289.0     39.945       1595.587
49    251.0      1.945          3.782
50    252.0      2.945          8.672
51    276.0     26.945        726.022
52    260.0     10.945        119.789
53    267.0     17.945        322.016
54    250.0      0.945          0.893
55    245.0     -4.055         16.445
56    263.0     13.945        194.457
57    270.0     20.945        438.685
58    254.0      4.945         24.451
59    242.0     -7.055         49.776
60    257.0      7.945         63.120
61    259.0      9.945         98.899
62    239.0    -10.055        101.107
63    268.0     18.945        358.905
64    243.0     -6.055         36.665
65    227.0    -22.055        486.432
66    233.0    -16.055        257.769
67    223.0    -26.055        678.873
68    239.0    -10.055        101.107
69    232.0    -17.055        290.880
70    231.0    -18.055        325.990
71    203.0    -46.055       2121.081
72    185.0    -64.055       4103.069
73    174.0    -75.055       5633.283
74    199.0    -50.055       2505.523
75    186.0    -63.055       3975.958
76    198.0    -51.055       2606.633
77    193.0    -56.055       3142.185
78    187.0    -62.055       3850.848
79    204.0    -45.055       2029.971
80    179.0    -70.055       4907.731
81    205.0    -44.055       1940.861
82    211.0    -38.055       1448.198
83    219.0    -30.055        903.315
84    230.0    -19.055        363.101
85    240.0     -9.055         81.997
86    259.0      9.945         98.899
87    234.0    -15.055        226.659
88    242.0     -7.055         49.776
89    240.0     -9.055         81.997
90    258.0      8.945         80.009
91    250.0      0.945          0.893
92    241.0     -8.055         64.886
93    252.0      2.945          8.672
94    229.0    -20.055        402.211
95    255.0      5.945         35.341
96    260.0     10.945        119.789
97    246.0     -3.055          9.334
98    232.0    -17.055        290.880
99    240.0     -9.055         81.997
100   240.0     -9.055         81.997
101   241.0     -8.055         64.886
102   255.0      5.945         35.341
103   240.0     -9.055         81.997
104   254.0      4.945         24.451
105   232.0    -17.055        290.880
106   246.0     -3.055          9.334
107   266.0     16.945        287.126
108   250.0      0.945          0.893
109   274.0     24.945        622.243
110   259.0      9.945         98.899
111   258.0      8.945         80.009
112   242.0     -7.055         49.776
113   256.0      6.945         48.230
114   240.0     -9.055         81.997
115   249.0     -0.055          0.003
116   250.0      0.945          0.893
117   262.0     12.945        167.568
118   241.0     -8.055         64.886
119   232.0    -17.055        290.880
120   268.0     18.945        358.905
121   258.0      8.945         80.009
122   254.0      4.945         24.451
123   255.0      5.945         35.341
124   266.0     16.945        287.126
125   249.0     -0.055          0.003
126   291.0     41.945       1759.366
127   278.0     28.945        837.801
128   253.0      3.945         15.561
129   271.0     21.945        481.574
130   289.0     39.945       1595.587
131   279.0     29.945        896.691
132   280.0     30.945        957.581
133   274.0     24.945        622.243
134   276.0     26.945        726.022
135   290.0     40.945       1676.477
136   280.0     30.945        957.581
137   278.0     28.945        837.801
138   265.0     15.945        254.237
139   258.0      8.945         80.009
140   265.0     15.945        254.237
141   267.0     17.945        322.016
142   285.0     35.945       1292.029
143   289.0     39.945       1595.587
144   288.0     38.945       1516.697
145   267.0     17.945        322.016
146   262.0     12.945        167.568
147   280.0     30.945        957.581
148   255.0      5.945         35.341
149   264.0     14.945        223.347
150   273.0     23.945        573.353
151   262.0     12.945        167.568
152   297.0     47.945       2298.704
153   271.0     21.945        481.574
154   278.0     28.945        837.801
155   296.0     46.945       2203.814
156   284.0     34.945       1221.139
157   273.0     23.945        573.353
158   299.0     49.945       2494.483
159   295.0     45.945       2110.925
160   292.0     42.945       1844.256
161   292.0     42.945       1844.256
162   310.0     60.945       3714.269
163   329.0     79.945       6391.171
164   309.0     59.945       3593.379
165   313.0     63.945       4088.937
166   314.0     64.945       4217.827
167   311.0     61.945       3837.158
168   320.0     70.945       5033.165
169   299.0     49.945       2494.483
170   300.0     50.945       2595.373
171   308.0     58.945       3474.489
172   303.0     53.945       2910.041
173   301.0     51.945       2698.262
174   289.0     39.945       1595.587
175   297.0     47.945       2298.704
176   307.0     57.945       3357.600
177   276.0     26.945        726.022
178   282.0     32.945       1085.360
179   283.0     33.945       1152.249
180   287.0     37.945       1439.808
181   285.0     35.945       1292.029
182   267.0     17.945        322.016
183   267.0     17.945        322.016
184   259.0      9.945         98.899
185   293.0     43.945       1931.145
186   275.0     25.945        673.133
187   284.0     34.945       1221.139
188   272.0     22.945        526.464
189   258.0      8.945         80.009
190   279.0     29.945        896.691
191   262.0     12.945        167.568
192   257.0      7.945         63.120
193   253.0      3.945         15.561
194   253.0      3.945         15.561
195   247.0     -2.055          4.224
196   207.0    -42.055       1768.640
197   208.0    -41.055       1685.529
198   197.0    -52.055       2709.744
199   212.0    -37.055       1373.088
200   230.0    -19.055        363.101
201   218.0    -31.055        964.425
202   221.0    -28.055        787.094
203   226.0    -23.055        531.542
204   227.0    -22.055        486.432
205   232.0    -17.055        290.880
206   199.0    -50.055       2505.523
207   197.0    -52.055       2709.744
208   193.0    -56.055       3142.185
209   170.0    -79.055       6249.725
210   193.0    -56.055       3142.185
211   203.0    -46.055       2121.081
212   226.0    -23.055        531.542
213   215.0    -34.055       1159.757
214   226.0    -23.055        531.542
215   244.0     -5.055         25.555
216   229.0    -20.055        402.211
217   203.0    -46.055       2121.081
218   202.0    -47.055       2214.192
219   208.0    -41.055       1685.529
220   219.0    -30.055        903.315
221   220.0    -29.055        844.205
222   201.0    -48.055       2309.302
223   194.0    -55.055       3031.075
224   191.0    -58.055       3370.406
225   200.0    -49.055       2406.413
226   186.0    -63.055       3975.958
227   184.0    -65.055       4232.179
228   214.0    -35.055       1228.867
229   202.0    -47.055       2214.192
230   208.0    -41.055       1685.529
231   197.0    -52.055       2709.744
232   216.0    -33.055       1092.646
233   204.0    -45.055       2029.971
234   212.0    -37.055       1373.088
235   230.0    -19.055        363.101
236   211.0    -38.055       1448.198
237   222.0    -27.055        731.984
238   198.0    -51.055       2606.633
239   208.0    -41.055       1685.529
240   199.0    -50.055       2505.523
241   194.0    -55.055       3031.075
242   201.0    -48.055       2309.302
243   229.0    -20.055        402.211
244   230.0    -19.055        363.101
245   211.0    -38.055       1448.198
246   210.0    -39.055       1525.309
247   195.0    -54.055       2921.965
248   202.0    -47.055       2214.192
249   207.0    -42.055       1768.640
250   206.0    -43.055       1853.750
251   216.0    -33.055       1092.646
252   195.0    -54.055       2921.965
253   184.0    -65.055       4232.179
254   157.0    -92.055       8474.160
255   152.0    -97.055       9419.712
256   145.0   -104.055      10827.485
257   147.0   -102.055      10415.264
258   196.0    -53.055       2814.854
259   180.0    -69.055       4768.621
260   149.0   -100.055      10011.043
261   147.0   -102.055      10415.264
262   156.0    -93.055       8659.270
263   172.0    -77.055       5937.504
264   167.0    -82.055       6733.056
265   168.0    -81.055       6569.945
266   162.0    -87.055       7578.608
267   179.0    -70.055       4907.731
268   190.0    -59.055       3487.517
269   166.0    -83.055       6898.166
270   180.0    -69.055       4768.621
271   177.0    -72.055       5191.952
272   189.0    -60.055       3606.627
273   203.0    -46.055       2121.081
274   215.0    -34.055       1159.757
275   196.0    -53.055       2814.854
276   177.0    -72.055       5191.952
277   201.0    -48.055       2309.302
278   178.0    -71.055       5048.841
279   176.0    -73.055       5337.062
280   209.0    -40.055       1604.419
281   199.0    -50.055       2505.523
282   187.0    -62.055       3850.848
283   213.0    -36.055       1299.977
284   215.0    -34.055       1159.757
285   215.0    -34.055       1159.757
286   195.0    -54.055       2921.965
287   182.0    -67.055       4496.400
288   196.0    -53.055       2814.854
289   160.0    -89.055       7930.829
290   177.0    -72.055       5191.952
291   192.0    -57.055       3255.296
292   170.0    -79.055       6249.725
293   165.0    -84.055       7065.277
294   175.0    -74.055       5484.173
295   165.0    -84.055       7065.277
296   168.0    -81.055       6569.945
297   188.0    -61.055       3727.737
298   201.0    -48.055       2309.302
299   188.0    -61.055       3727.737
300   186.0    -63.055       3975.958
301   187.0    -62.055       3850.848
302   198.0    -51.055       2606.633
303   212.0    -37.055       1373.088
304   202.0    -47.055       2214.192
305   192.0    -57.055       3255.296
306   173.0    -76.055       5784.393
307   186.0    -63.055       3975.958
308   190.0    -59.055       3487.517
309   185.0    -64.055       4103.069
310   199.0    -50.055       2505.523
311   196.0    -53.055       2814.854
312   213.0    -36.055       1299.977
313   196.0    -53.055       2814.854
314   187.0    -62.055       3850.848
315   181.0    -68.055       4631.510
316   188.0    -61.055       3727.737
317   203.0    -46.055       2121.081
318   180.0    -69.055       4768.621
319   177.0    -72.055       5191.952
320   173.0    -76.055       5784.393
321   141.0   -108.055      11675.926
322   138.0   -111.055      12333.257
323   147.0   -102.055      10415.264
324   141.0   -108.055      11675.926
325   161.0    -88.055       7753.718
326   144.0   -105.055      11036.595
327   133.0   -116.055      13468.809
328   129.0   -120.055      14413.251
329   124.0   -125.055      15638.803
330   118.0   -131.055      17175.465
331   124.0   -125.055      15638.803
332   145.0   -104.055      10827.485
333   144.0   -105.055      11036.595
334   152.0    -97.055       9419.712
335   159.0    -90.055       8109.939
336   168.0    -81.055       6569.945
337   168.0    -81.055       6569.945
338   142.0   -107.055      11460.816
339   122.0   -127.055      16143.024
340   132.0   -117.055      13701.920
341   147.0   -102.055      10415.264
342   123.0   -126.055      15889.913
343   137.0   -112.055      12556.368
344   152.0    -97.055       9419.712
345   126.0   -123.055      15142.582
346   163.0    -86.055       7405.497
347   151.0    -98.055       9614.822
348   132.0   -117.055      13701.920
349   142.0   -107.055      11460.816
350   147.0   -102.055      10415.264
351   133.0   -116.055      13468.809
352   138.0   -111.055      12333.257
353   136.0   -113.055      12781.478
354   143.0   -106.055      11247.705
355   135.0   -114.055      13008.589
356   134.0   -115.055      13237.699
357   118.0   -131.055      17175.465
358    99.0   -150.055      22516.563
359   137.0   -112.055      12556.368
360   138.0   -111.055      12333.257
361   135.0   -114.055      13008.589
362   142.0   -107.055      11460.816
363   133.0   -116.055      13468.809
364   120.0   -129.055      16655.245
365    98.0   -151.055      22817.673
366    92.0   -157.055      24666.336
367    93.0   -156.055      24353.225
368    97.0   -152.055      23120.784
369   108.0   -141.055      19896.569
370   105.0   -144.055      20751.901
371   112.0   -137.055      18784.128
372   108.0   -141.055      19896.569
373   112.0   -137.055      18784.128
374   119.0   -130.055      16914.355
375   124.0   -125.055      15638.803
376   130.0   -119.055      14174.141
377   120.0   -129.055      16655.245
378   116.0   -133.055      17703.686
379   134.0   -115.055      13237.699
380   137.0   -112.055      12556.368
381   128.0   -121.055      14654.361
382   151.0    -98.055       9614.822
383   136.0   -113.055      12781.478
384   112.0   -137.055      18784.128
385   118.0   -131.055      17175.465
386   119.0   -130.055      16914.355
387    96.0   -153.055      23425.894
388   133.0   -116.055      13468.809
389   130.0   -119.055      14174.141
390   113.0   -136.055      18511.017
391   102.0   -147.055      21625.232
392    79.0   -170.055      28918.771
393   100.0   -149.055      22217.453
394   102.0   -147.055      21625.232
395   116.0   -133.055      17703.686
396   113.0   -136.055      18511.017
397   128.0   -121.055      14654.361
398   126.0   -123.055      15142.582
399   143.0   -106.055      11247.705
400   135.0   -114.055      13008.589
401   140.0   -109.055      11893.037
402   132.0   -117.055      13701.920
403   141.0   -108.055      11675.926
404   157.0    -92.055       8474.160
405   161.0    -88.055       7753.718
406   188.0    -61.055       3727.737
407   182.0    -67.055       4496.400
408   168.0    -81.055       6569.945
409   166.0    -83.055       6898.166
410   165.0    -84.055       7065.277
411   171.0    -78.055       6092.614
412   182.0    -67.055       4496.400
413   173.0    -76.055       5784.393
414   204.0    -45.055       2029.971
415   214.0    -35.055       1228.867
416   212.0    -37.055       1373.088
417   205.0    -44.055       1940.861
418   211.0    -38.055       1448.198
419   226.0    -23.055        531.542
420   232.0    -17.055        290.880
421   227.0    -22.055        486.432
422   232.0    -17.055        290.880
423   258.0      8.945         80.009
424   240.0     -9.055         81.997
425   221.0    -28.055        787.094
426   237.0    -12.055        145.328
427   234.0    -15.055        226.659
428   230.0    -19.055        363.101
429   253.0      3.945         15.561
430   268.0     18.945        358.905
431   247.0     -2.055          4.224
432   239.0    -10.055        101.107
433   246.0     -3.055          9.334
434   265.0     15.945        254.237
435   283.0     33.945       1152.249
436   260.0     10.945        119.789
437   255.0      5.945         35.341
438   246.0     -3.055          9.334
439   240.0     -9.055         81.997
440   231.0    -18.055        325.990
441   249.0     -0.055          0.003
442   260.0     10.945        119.789
443   222.0    -27.055        731.984
444   215.0    -34.055       1159.757
445   227.0    -22.055        486.432
446   237.0    -12.055        145.328
447   243.0     -6.055         36.665
448   251.0      1.945          3.782
449   251.0      1.945          3.782
450   266.0     16.945        287.126
451   276.0     26.945        726.022
452   281.0     31.945       1020.470
453   276.0     26.945        726.022
454   290.0     40.945       1676.477
455   267.0     17.945        322.016
456   273.0     23.945        573.353
457   295.0     45.945       2110.925
458   257.0      7.945         63.120
459   282.0     32.945       1085.360
460   262.0     12.945        167.568
461   236.0    -13.055        170.438
462   257.0      7.945         63.120
463   263.0     13.945        194.457
464   257.0      7.945         63.120
465   247.0     -2.055          4.224
466   241.0     -8.055         64.886
467   251.0      1.945          3.782
468   260.0     10.945        119.789
469   268.0     18.945        358.905
470   268.0     18.945        358.905
471   253.0      3.945         15.561
472   262.0     12.945        167.568
473   273.0     23.945        573.353
474   264.0     14.945        223.347
475   278.0     28.945        837.801
476   264.0     14.945        223.347
477   256.0      6.945         48.230
478   252.0      2.945          8.672
479   241.0     -8.055         64.886
480   260.0     10.945        119.789
481   267.0     17.945        322.016
482   269.0     19.945        397.795
483   272.0     22.945        526.464
484   270.0     20.945        438.685
485   271.0     21.945        481.574
486   270.0     20.945        438.685
487   268.0     18.945        358.905
488   284.0     34.945       1221.139
489   287.0     37.945       1439.808
490   306.0     56.945       3242.710
491   308.0     58.945       3474.489
492   322.0     72.945       5320.944
493   332.0     82.945       6879.840
494   337.0     87.945       7734.288
495   328.0     78.945       6232.281
496   311.0     61.945       3837.158
497   306.0     56.945       3242.710
498   316.0     66.945       4481.606
499   327.0     77.945       6075.392
500   319.0     69.945       4892.275
501   326.0     76.945       5920.502
502   324.0     74.945       5616.723
503   296.0     46.945       2203.814
504   318.0     68.945       4753.385
505   320.0     70.945       5033.165
506   298.0     48.945       2395.593
507   312.0     62.945       3962.048
508   316.0     66.945       4481.606
509   307.0     57.945       3357.600
510   299.0     49.945       2494.483
511   303.0     53.945       2910.041
512   285.0     35.945       1292.029
513   283.0     33.945       1152.249
514   293.0     43.945       1931.145
515   279.0     29.945        896.691
516   280.0     30.945        957.581
517   279.0     29.945        896.691
518   283.0     33.945       1152.249
519   291.0     41.945       1759.366
520   276.0     26.945        726.022
521   270.0     20.945        438.685
522   278.0     28.945        837.801
523   303.0     53.945       2910.041
524   283.0     33.945       1152.249
525   281.0     31.945       1020.470
526   294.0     44.945       2020.035
527   301.0     51.945       2698.262
528   315.0     65.945       4348.717
529   315.0     65.945       4348.717
530   303.0     53.945       2910.041
531   311.0     61.945       3837.158
532   306.0     56.945       3242.710
533   325.0     75.945       5767.613
534   297.0     47.945       2298.704
535   291.0     41.945       1759.366
536   286.0     36.945       1364.918
537   283.0     33.945       1152.249
538   292.0     42.945       1844.256
539   289.0     39.945       1595.587
540   297.0     47.945       2298.704
541   290.0     40.945       1676.477
542   301.0     51.945       2698.262
543   271.0     21.945        481.574
544   297.0     47.945       2298.704
545   309.0     59.945       3593.379
546   297.0     47.945       2298.704
547   295.0     45.945       2110.925
548   306.0     56.945       3242.710
549   308.0     58.945       3474.489
550   336.0     86.945       7559.398
551   309.0     59.945       3593.379
552   303.0     53.945       2910.041
553   297.0     47.945       2298.704
554   281.0     31.945       1020.470
555   298.0     48.945       2395.593
556   291.0     41.945       1759.366
557   282.0     32.945       1085.360
558   272.0     22.945        526.464
559   290.0     40.945       1676.477
560   286.0     36.945       1364.918
561   299.0     49.945       2494.483
562   276.0     26.945        726.022
563   280.0     30.945        957.581
564   284.0     34.945       1221.139
565   276.0     26.945        726.022
566   281.0     31.945       1020.470
567   291.0     41.945       1759.366
568   301.0     51.945       2698.262
569   315.0     65.945       4348.717
570   311.0     61.945       3837.158
571   284.0     34.945       1221.139
572   300.0     50.945       2595.373
573   300.0     50.945       2595.373
574   314.0     64.945       4217.827
575   326.0     76.945       5920.502
576   339.0     89.945       8090.067
577   334.0     84.945       7215.619
578   331.0     81.945       6714.950
579   340.0     90.945       8270.957
580   343.0     93.945       8825.625
581   346.0     96.945       9398.294
582   335.0     85.945       7386.509
583   328.0     78.945       6232.281
584   307.0     57.945       3357.600
585   299.0     49.945       2494.483
586   328.0     78.945       6232.281
587   308.0     58.945       3474.489
588   320.0     70.945       5033.165
589   330.0     80.945       6552.061
590   306.0     56.945       3242.710
591   286.0     36.945       1364.918
592   272.0     22.945        526.464
593   285.0     35.945       1292.029
594   303.0     53.945       2910.041
595   316.0     66.945       4481.606
596   313.0     63.945       4088.937
597   310.0     60.945       3714.269
598   297.0     47.945       2298.704
599   305.0     55.945       3129.821
600   312.0     62.945       3962.048
601   321.0     71.945       5176.054
602   303.0     53.945       2910.041
603   324.0     74.945       5616.723
604   304.0     54.945       3018.931
605   306.0     56.945       3242.710
606   328.0     78.945       6232.281
607   301.0     51.945       2698.262
608   329.0     79.945       6391.171
609   323.0     73.945       5467.833
610   313.0     63.945       4088.937
611   310.0     60.945       3714.269
612   324.0     74.945       5616.723
613   326.0     76.945       5920.502
614   328.0     78.945       6232.281
615   316.0     66.945       4481.606
616   335.0     85.945       7386.509
617   325.0     75.945       5767.613
618   323.0     73.945       5467.833
619   337.0     87.945       7734.288
620   341.0     91.945       8453.846
621   339.0     89.945       8090.067
622   348.0     98.945       9790.073
623   370.0    120.945      14627.645
624   350.0    100.945      10189.853
625   392.0    142.945      20433.216
626   373.0    123.945      15362.313
627   352.0    102.945      10597.632
628   335.0     85.945       7386.509
629   348.0     98.945       9790.073
630   337.0     87.945       7734.288
631   347.0     97.945       9593.184
632   344.0     94.945       9014.515
633   342.0     92.945       8638.736
634   336.0     86.945       7559.398
635   334.0     84.945       7215.619
636   353.0    103.945      10804.521
637   331.0     81.945       6714.950
638   311.0     61.945       3837.158
639   308.0     58.945       3474.489
640   322.0     72.945       5320.944
641   315.0     65.945       4348.717
642   321.0     71.945       5176.054
643   324.0     74.945       5616.723
644   348.0     98.945       9790.073
645   332.0     82.945       6879.840
646   355.0    105.945      11224.301
647   359.0    109.945      12087.859
648   347.0     97.945       9593.184
649   326.0     76.945       5920.502
650   305.0     55.945       3129.821
651   288.0     38.945       1516.697
652   299.0     49.945       2494.483
653   301.0     51.945       2698.262
654   287.0     37.945       1439.808
655   313.0     63.945       4088.937
656   304.0     54.945       3018.931
657   317.0     67.945       4616.496
658   311.0     61.945       3837.158
659   297.0     47.945       2298.704
660   291.0     41.945       1759.366
661   301.0     51.945       2698.262
662   292.0     42.945       1844.256
663   278.0     28.945        837.801
664   272.0     22.945        526.464
665   281.0     31.945       1020.470
666   291.0     41.945       1759.366
667   290.0     40.945       1676.477
668   289.0     39.945       1595.587
669   262.0     12.945        167.568
670   251.0      1.945          3.782
671   280.0     30.945        957.581
672   284.0     34.945       1221.139
673   271.0     21.945        481.574
674   273.0     23.945        573.353
675   262.0     12.945        167.568
676   266.0     16.945        287.126
677   257.0      7.945         63.120
678   268.0     18.945        358.905
679   282.0     32.945       1085.360
680   269.0     19.945        397.795
681   266.0     16.945        287.126
682   299.0     49.945       2494.483
683   301.0     51.945       2698.262
684   294.0     44.945       2020.035
685   286.0     36.945       1364.918
686   298.0     48.945       2395.593
687   284.0     34.945       1221.139
688   305.0     55.945       3129.821
689   312.0     62.945       3962.048
690   301.0     51.945       2698.262
691   312.0     62.945       3962.048
692   312.0     62.945       3962.048
693   311.0     61.945       3837.158
694   300.0     50.945       2595.373
695   303.0     53.945       2910.041
696   325.0     75.945       5767.613
697   308.0     58.945       3474.489
698   321.0     71.945       5176.054
699   343.0     93.945       8825.625
700   325.0     75.945       5767.613
701   327.0     77.945       6075.392
702   329.0     79.945       6391.171
703   333.0     83.945       7046.729
704   324.0     74.945       5616.723
705   326.0     76.945       5920.502
706   325.0     75.945       5767.613
707   324.0     74.945       5616.723
708   325.0     75.945       5767.613
709   304.0     54.945       3018.931
710   312.0     62.945       3962.048
711   330.0     80.945       6552.061
712   320.0     70.945       5033.165
713   322.0     72.945       5320.944
714   350.0    100.945      10189.853
715   345.0     95.945       9205.405
716   329.0     79.945       6391.171
717   351.0    101.945      10392.742
718   339.0     89.945       8090.067
719   348.0     98.945       9790.073
720   338.0     88.945       7911.177
721   347.0     97.945       9593.184
722   355.0    105.945      11224.301
723   367.0    117.945      13910.976
724   372.0    122.945      15115.424
725   329.0     79.945       6391.171
726   347.0     97.945       9593.184
727   341.0     91.945       8453.846
728   348.0     98.945       9790.073
729   356.0    106.945      11437.190
730   372.0    122.945      15115.424
731   362.0    112.945      12756.528
732   359.0    109.945      12087.859
733   344.0     94.945       9014.515
734   339.0     89.945       8090.067
735   347.0     97.945       9593.184
736   331.0     81.945       6714.950
737   335.0     85.945       7386.509
738   341.0     91.945       8453.846
739   357.0    107.945      11652.080
740   342.0     92.945       8638.736
741   322.0     72.945       5320.944
742   312.0     62.945       3962.048
743   325.0     75.945       5767.613
744   323.0     73.945       5467.833
745   344.0     94.945       9014.515
746   352.0    102.945      10597.632
747   347.0     97.945       9593.184
748   363.0    113.945      12983.417
749   352.0    102.945      10597.632
750   353.0    103.945      10804.521
751   349.0     99.945       9988.963
752   335.0     85.945       7386.509
753   345.0     95.945       9205.405
754   341.0     91.945       8453.846
755   362.0    112.945      12756.528
756   367.0    117.945      13910.976
757   366.0    116.945      13676.086
758   370.0    120.945      14627.645
759   347.0     97.945       9593.184
760   354.0    104.945      11013.411
761   351.0    101.945      10392.742
762   333.0     83.945       7046.729
763   334.0     84.945       7215.619
764   337.0     87.945       7734.288
765   322.0     72.945       5320.944
766   315.0     65.945       4348.717
767   349.0     99.945       9988.963
768   349.0     99.945       9988.963
769   353.0    103.945      10804.521
770   356.0    106.945      11437.190
771   348.0     98.945       9790.073
772   339.0     89.945       8090.067
773   337.0     87.945       7734.288
774   351.0    101.945      10392.742
775   337.0     87.945       7734.288
776   340.0     90.945       8270.957
777   356.0    106.945      11437.190
778   352.0    102.945      10597.632
779   340.0     90.945       8270.957
780   336.0     86.945       7559.398
781   307.0     57.945       3357.600
782   293.0     43.945       1931.145
783   267.0     17.945        322.016
784   276.0     26.945        726.022
785   248.0     -1.055          1.113
786   242.0     -7.055         49.776
787   249.0     -0.055          0.003
788   232.0    -17.055        290.880
789   251.0      1.945          3.782
790   247.0     -2.055          4.224
791   248.0     -1.055          1.113
792   232.0    -17.055        290.880
793   248.0     -1.055          1.113
794   262.0     12.945        167.568
795   261.0     11.945        142.678
796   250.0      0.945          0.893
797   274.0     24.945        622.243
798   274.0     24.945        622.243
799   283.0     33.945       1152.249
800   285.0     35.945       1292.029
801   286.0     36.945       1364.918
802   288.0     38.945       1516.697
803   273.0     23.945        573.353
804   286.0     36.945       1364.918
805   284.0     34.945       1221.139
806   308.0     58.945       3474.489
807   302.0     52.945       2803.152
808   306.0     56.945       3242.710
809   303.0     53.945       2910.041
810   317.0     67.945       4616.496
811   342.0     92.945       8638.736
812   344.0     94.945       9014.515
813   347.0     97.945       9593.184
814   346.0     96.945       9398.294
815   344.0     94.945       9014.515
816   351.0    101.945      10392.742
817   347.0     97.945       9593.184
818   355.0    105.945      11224.301
819   367.0    117.945      13910.976
820   365.0    115.945      13443.197
821   345.0     95.945       9205.405
822   356.0    106.945      11437.190
823   372.0    122.945      15115.424
824   371.0    121.945      14870.534
825   362.0    112.945      12756.528
826   344.0     94.945       9014.515
827   342.0     92.945       8638.736
828   312.0     62.945       3962.048
829   343.0     93.945       8825.625
830   346.0     96.945       9398.294
831   336.0     86.945       7559.398
832   343.0     93.945       8825.625
833   373.0    123.945      15362.313
834   336.0     86.945       7559.398
835   354.0    104.945      11013.411
836   366.0    116.945      13676.086
837   360.0    110.945      12308.749
838   370.0    120.945      14627.645
839   341.0     91.945       8453.846
840   342.0     92.945       8638.736
841   322.0     72.945       5320.944
842   326.0     76.945       5920.502
843   327.0     77.945       6075.392
844   344.0     94.945       9014.515
845   327.0     77.945       6075.392
846   318.0     68.945       4753.385
847   319.0     69.945       4892.275
848   321.0     71.945       5176.054
849   317.0     67.945       4616.496
850   305.0     55.945       3129.821
851   314.0     64.945       4217.827
852   319.0     69.945       4892.275
853   301.0     51.945       2698.262
854   297.0     47.945       2298.704
855   294.0     44.945       2020.035
856   270.0     20.945        438.685
857   309.0     59.945       3593.379
858   294.0     44.945       2020.035
859   285.0     35.945       1292.029
860   283.0     33.945       1152.249
861   251.0      1.945          3.782
862   270.0     20.945        438.685
863   270.0     20.945        438.685
864   282.0     32.945       1085.360
865   287.0     37.945       1439.808
866   277.0     27.945        780.912
867   299.0     49.945       2494.483
868   287.0     37.945       1439.808
869   286.0     36.945       1364.918
870   291.0     41.945       1759.366
871   311.0     61.945       3837.158
872   308.0     58.945       3474.489
873   279.0     29.945        896.691
874   273.0     23.945        573.353
875   274.0     24.945        622.243
876   292.0     42.945       1844.256
877   272.0     22.945        526.464
878   288.0     38.945       1516.697
879   284.0     34.945       1221.139
880   262.0     12.945        167.568
881   265.0     15.945        254.237
882   260.0     10.945        119.789
883   268.0     18.945        358.905
884   271.0     21.945        481.574
885   257.0      7.945         63.120
886   276.0     26.945        726.022
887   278.0     28.945        837.801
888   297.0     47.945       2298.704
889   296.0     46.945       2203.814
890   283.0     33.945       1152.249
891   288.0     38.945       1516.697
892   287.0     37.945       1439.808
893   303.0     53.945       2910.041
894   291.0     41.945       1759.366
895   305.0     55.945       3129.821
896   317.0     67.945       4616.496
897   342.0     92.945       8638.736
898   355.0    105.945      11224.301
899   356.0    106.945      11437.190
900   362.0    112.945      12756.528
901   343.0     93.945       8825.625
902   332.0     82.945       6879.840
903   336.0     86.945       7559.398
904   334.0     84.945       7215.619
905   331.0     81.945       6714.950
906   337.0     87.945       7734.288
907   327.0     77.945       6075.392
908   325.0     75.945       5767.613
909   312.0     62.945       3962.048
910   324.0     74.945       5616.723
911   308.0     58.945       3474.489
912   293.0     43.945       1931.145
913   310.0     60.945       3714.269
914   309.0     59.945       3593.379
915   327.0     77.945       6075.392
916   312.0     62.945       3962.048
917   306.0     56.945       3242.710
918   333.0     83.945       7046.729
919   311.0     61.945       3837.158
920   269.0     19.945        397.795
921   270.0     20.945        438.685
922   291.0     41.945       1759.366
923   298.0     48.945       2395.593
924   293.0     43.945       1931.145
925   303.0     53.945       2910.041
926   289.0     39.945       1595.587
927   290.0     40.945       1676.477
928   274.0     24.945        622.243
929   266.0     16.945        287.126
930   287.0     37.945       1439.808
931   307.0     57.945       3357.600
932   278.0     28.945        837.801
933   289.0     39.945       1595.587
934   310.0     60.945       3714.269
935   304.0     54.945       3018.931
936   300.0     50.945       2595.373
937   285.0     35.945       1292.029
938   314.0     64.945       4217.827
939   303.0     53.945       2910.041
940   281.0     31.945       1020.470
941   311.0     61.945       3837.158
942   309.0     59.945       3593.379
943   269.0     19.945        397.795
944   287.0     37.945       1439.808
945   296.0     46.945       2203.814
946   300.0     50.945       2595.373
947   276.0     26.945        726.022
948   295.0     45.945       2110.925
949   308.0     58.945       3474.489
950   316.0     66.945       4481.606
951   299.0     49.945       2494.483
952   295.0     45.945       2110.925
953   317.0     67.945       4616.496
954   298.0     48.945       2395.593
955   338.0     88.945       7911.177
956   335.0     85.945       7386.509
957   323.0     73.945       5467.833
958   336.0     86.945       7559.398
959   324.0     74.945       5616.723
960   351.0    101.945      10392.742
961   316.0     66.945       4481.606
962   300.0     50.945       2595.373
963   300.0     50.945       2595.373
964   299.0     49.945       2494.483
965   295.0     45.945       2110.925
966   281.0     31.945       1020.470
967   279.0     29.945        896.691
968   269.0     19.945        397.795
969   287.0     37.945       1439.808
970   271.0     21.945        481.574
971   259.0      9.945         98.899
972   275.0     25.945        673.133
973   262.0     12.945        167.568
974   261.0     11.945        142.678
975   248.0     -1.055          1.113
976   272.0     22.945        526.464
977   281.0     31.945       1020.470
978   269.0     19.945        397.795
979   284.0     34.945       1221.139
980   284.0     34.945       1221.139
981   283.0     33.945       1152.249
982   275.0     25.945        673.133
983   254.0      4.945         24.451
984   264.0     14.945        223.347
985   258.0      8.945         80.009
986   261.0     11.945        142.678
987   277.0     27.945        780.912
988   250.0      0.945          0.893
989   252.0      2.945          8.672
990   257.0      7.945         63.120
991   242.0     -7.055         49.776
992   258.0      8.945         80.009
993   266.0     16.945        287.126
994   262.0     12.945        167.568
995   258.0      8.945         80.009
996   273.0     23.945        573.353
997   260.0     10.945        119.789
998   260.0     10.945        119.789
999   230.0    -19.055        363.101
1000  216.0    -33.055       1092.646
1001  233.0    -16.055        257.769
1002  220.0    -29.055        844.205
1003  257.0      7.945         63.120
1004  238.0    -11.055        122.217
1005  248.0     -1.055          1.113
1006  239.0    -10.055        101.107
1007  235.0    -14.055        197.549
1008  249.0     -0.055          0.003
1009  229.0    -20.055        402.211
1010  235.0    -14.055        197.549
1011  245.0     -4.055         16.445
1012  229.0    -20.055        402.211
1013  216.0    -33.055       1092.646
1014  220.0    -29.055        844.205
1015  245.0     -4.055         16.445
1016  240.0     -9.055         81.997
1017  253.0      3.945         15.561
1018  256.0      6.945         48.230
1019  240.0     -9.055         81.997
1020  253.0      3.945         15.561
1021  262.0     12.945        167.568
1022  248.0     -1.055          1.113
1023  257.0      7.945         63.120
1024  280.0     30.945        957.581
1025  274.0     24.945        622.243
1026  289.0     39.945       1595.587
1027  277.0     27.945        780.912
1028  266.0     16.945        287.126
1029  277.0     27.945        780.912
1030  276.0     26.945        726.022
1031  282.0     32.945       1085.360
1032  285.0     35.945       1292.029
1033  306.0     56.945       3242.710
1034  274.0     24.945        622.243
1035  258.0      8.945         80.009
1036  265.0     15.945        254.237
1037  284.0     34.945       1221.139
1038  298.0     48.945       2395.593
1039  305.0     55.945       3129.821
1040  296.0     46.945       2203.814
1041  278.0     28.945        837.801
1042  299.0     49.945       2494.483
1043  285.0     35.945       1292.029
1044  265.0     15.945        254.237
1045  249.0     -0.055          0.003
1046  276.0     26.945        726.022
1047  274.0     24.945        622.243
1048  235.0    -14.055        197.549
1049  242.0     -7.055         49.776
1050  269.0     19.945        397.795
1051  269.0     19.945        397.795
1052  270.0     20.945        438.685
1053  261.0     11.945        142.678
1054  263.0     13.945        194.457
1055  240.0     -9.055         81.997
1056  242.0     -7.055         49.776
1057  266.0     16.945        287.126
1058  258.0      8.945         80.009
1059  247.0     -2.055          4.224
1060  258.0      8.945         80.009
1061  258.0      8.945         80.009
1062  237.0    -12.055        145.328
1063  240.0     -9.055         81.997
1064  253.0      3.945         15.561
1065  235.0    -14.055        197.549
1066  255.0      5.945         35.341
1067  262.0     12.945        167.568
1068  229.0    -20.055        402.211
1069  233.0    -16.055        257.769
1070  239.0    -10.055        101.107
1071  259.0      9.945         98.899
1072  258.0      8.945         80.009
1073  246.0     -3.055          9.334
1074  259.0      9.945         98.899
1075  256.0      6.945         48.230
1076  262.0     12.945        167.568
1077  254.0      4.945         24.451
1078  235.0    -14.055        197.549
1079  242.0     -7.055         49.776
1080  235.0    -14.055        197.549
1081  235.0    -14.055        197.549
1082  209.0    -40.055       1604.419
1083  215.0    -34.055       1159.757
1084  239.0    -10.055        101.107
1085  238.0    -11.055        122.217
1086  219.0    -30.055        903.315
1087  211.0    -38.055       1448.198
1088  213.0    -36.055       1299.977
1089  223.0    -26.055        678.873
1090  236.0    -13.055        170.438
1091  226.0    -23.055        531.542
1092  234.0    -15.055        226.659
1093  223.0    -26.055        678.873
1094  212.0    -37.055       1373.088
1095  218.0    -31.055        964.425
1096  218.0    -31.055        964.425
1097  232.0    -17.055        290.880
1098  241.0     -8.055         64.886
1099  248.0     -1.055          1.113
1100  259.0      9.945         98.899
1101  269.0     19.945        397.795
1102  250.0      0.945          0.893
1103  251.0      1.945          3.782
1104  266.0     16.945        287.126
1105  251.0      1.945          3.782
1106  272.0     22.945        526.464
1107  258.0      8.945         80.009
1108  263.0     13.945        194.457
1109  272.0     22.945        526.464
1110  284.0     34.945       1221.139
1111  283.0     33.945       1152.249
1112  281.0     31.945       1020.470
1113  263.0     13.945        194.457
1114  270.0     20.945        438.685
1115  281.0     31.945       1020.470
1116  285.0     35.945       1292.029
1117  298.0     48.945       2395.593
1118  295.0     45.945       2110.925
1119  304.0     54.945       3018.931
1120  287.0     37.945       1439.808
1121  294.0     44.945       2020.035
1122  294.0     44.945       2020.035
1123  303.0     53.945       2910.041
1124  328.0     78.945       6232.281
1125  334.0     84.945       7215.619
1126  322.0     72.945       5320.944
1127  331.0     81.945       6714.950
1128  297.0     47.945       2298.704
1129  305.0     55.945       3129.821
1130  331.0     81.945       6714.950
1131  318.0     68.945       4753.385
1132  306.0     56.945       3242.710
1133  278.0     28.945        837.801
1134  273.0     23.945        573.353
1135  274.0     24.945        622.243
1136  273.0     23.945        573.353
1137  277.0     27.945        780.912
1138  281.0     31.945       1020.470
1139  265.0     15.945        254.237
1140  264.0     14.945        223.347
1141  283.0     33.945       1152.249
1142  278.0     28.945        837.801
1143  275.0     25.945        673.133
1144  285.0     35.945       1292.029
1145  288.0     38.945       1516.697
1146  267.0     17.945        322.016
1147  256.0      6.945         48.230
1148  249.0     -0.055          0.003
1149  228.0    -21.055        443.321
1150  240.0     -9.055         81.997
1151  236.0    -13.055        170.438
1152  238.0    -11.055        122.217
1153  270.0     20.945        438.685
1154  258.0      8.945         80.009
1155  262.0     12.945        167.568
1156  255.0      5.945         35.341
1157  235.0    -14.055        197.549
1158  262.0     12.945        167.568
1159  247.0     -2.055          4.224
1160  235.0    -14.055        197.549
1161  242.0     -7.055         49.776
1162  248.0     -1.055          1.113
1163  249.0     -0.055          0.003
1164  236.0    -13.055        170.438
1165  266.0     16.945        287.126
1166  250.0      0.945          0.893
1167  235.0    -14.055        197.549
1168  248.0     -1.055          1.113
1169  222.0    -27.055        731.984
1170  201.0    -48.055       2309.302
1171  213.0    -36.055       1299.977
1172  212.0    -37.055       1373.088
1173  212.0    -37.055       1373.088
1174  204.0    -45.055       2029.971
1175  218.0    -31.055        964.425
1176  207.0    -42.055       1768.640
1177  214.0    -35.055       1228.867
1178  236.0    -13.055        170.438
1179  229.0    -20.055        402.211
1180  260.0     10.945        119.789
1181  252.0      2.945          8.672
1182  222.0    -27.055        731.984
1183  238.0    -11.055        122.217
1184  236.0    -13.055        170.438
1185  213.0    -36.055       1299.977
1186  216.0    -33.055       1092.646
1187  228.0    -21.055        443.321
1188  233.0    -16.055        257.769
1189  231.0    -18.055        325.990
1190  212.0    -37.055       1373.088
1191  231.0    -18.055        325.990
1192  247.0     -2.055          4.224
1193  262.0     12.945        167.568
1194  262.0     12.945        167.568
1195  251.0      1.945          3.782
1196  254.0      4.945         24.451
1197  258.0      8.945         80.009
1198  244.0     -5.055         25.555
1199  257.0      7.945         63.120
1200  264.0     14.945        223.347
1201  258.0      8.945         80.009
1202  257.0      7.945         63.120
1203  259.0      9.945         98.899
1204  269.0     19.945        397.795
1205  277.0     27.945        780.912
1206  269.0     19.945        397.795
1207  254.0      4.945         24.451
1208  273.0     23.945        573.353
1209  239.0    -10.055        101.107
1210  243.0     -6.055         36.665
1211  254.0      4.945         24.451
1212  261.0     11.945        142.678
1213  244.0     -5.055         25.555
1214  252.0      2.945          8.672
1215  237.0    -12.055        145.328
1216  223.0    -26.055        678.873
1217  197.0    -52.055       2709.744
1218  200.0    -49.055       2406.413
1219  225.0    -24.055        578.653
1220  215.0    -34.055       1159.757
1221  219.0    -30.055        903.315
1222  205.0    -44.055       1940.861
1223  196.0    -53.055       2814.854
1224  188.0    -61.055       3727.737
1225  207.0    -42.055       1768.640
1226  208.0    -41.055       1685.529
1227  196.0    -53.055       2814.854
1228  233.0    -16.055        257.769
1229  236.0    -13.055        170.438
1230  230.0    -19.055        363.101
1231  212.0    -37.055       1373.088
1232  230.0    -19.055        363.101
1233  236.0    -13.055        170.438
1234  211.0    -38.055       1448.198
1235  225.0    -24.055        578.653
1236  235.0    -14.055        197.549
1237  229.0    -20.055        402.211
1238  203.0    -46.055       2121.081
1239  236.0    -13.055        170.438
1240  225.0    -24.055        578.653
1241  232.0    -17.055        290.880
1242  179.0    -70.055       4907.731
1243  184.0    -65.055       4232.179
1244  188.0    -61.055       3727.737
1245  163.0    -86.055       7405.497
1246  164.0    -85.055       7234.387
1247  171.0    -78.055       6092.614
1248  212.0    -37.055       1373.088
1249  200.0    -49.055       2406.413
1250  198.0    -51.055       2606.633
1251  186.0    -63.055       3975.958
1252  193.0    -56.055       3142.185
1253  229.0    -20.055        402.211
1254  224.0    -25.055        627.763
1255  216.0    -33.055       1092.646
1256  228.0    -21.055        443.321
1257  226.0    -23.055        531.542
1258  265.0     15.945        254.237
1259  257.0      7.945         63.120
1260  251.0      1.945          3.782
1261  262.0     12.945        167.568
1262  247.0     -2.055          4.224
1263  255.0      5.945         35.341
1264  250.0      0.945          0.893
1265  240.0     -9.055         81.997
1266  229.0    -20.055        402.211
1267  247.0     -2.055          4.224
1268  253.0      3.945         15.561
1269  256.0      6.945         48.230
1270  251.0      1.945          3.782
1271  248.0     -1.055          1.113
1272  258.0      8.945         80.009
1273  257.0      7.945         63.120
1274  264.0     14.945        223.347
1275  274.0     24.945        622.243
1276  287.0     37.945       1439.808
1277  266.0     16.945        287.126
1278  273.0     23.945        573.353
1279  283.0     33.945       1152.249
1280  297.0     47.945       2298.704
1281  299.0     49.945       2494.483
1282  281.0     31.945       1020.470
1283  289.0     39.945       1595.587
1284  307.0     57.945       3357.600
1285  293.0     43.945       1931.145
1286  288.0     38.945       1516.697
1287  268.0     18.945        358.905
1288  267.0     17.945        322.016
1289  258.0      8.945         80.009
1290  252.0      2.945          8.672
1291  254.0      4.945         24.451
1292  245.0     -4.055         16.445
1293  267.0     17.945        322.016
1294  255.0      5.945         35.341
1295  271.0     21.945        481.574
1296  236.0    -13.055        170.438
1297  249.0     -0.055          0.003
1298  232.0    -17.055        290.880
1299  237.0    -12.055        145.328
1300  230.0    -19.055        363.101
1301  199.0    -50.055       2505.523
1302  225.0    -24.055        578.653
1303  241.0     -8.055         64.886
1304  242.0     -7.055         49.776
1305  225.0    -24.055        578.653
1306  246.0     -3.055          9.334
1307  260.0     10.945        119.789
1308  236.0    -13.055        170.438
1309  229.0    -20.055        402.211
1310  231.0    -18.055        325.990
1311  214.0    -35.055       1228.867
1312  223.0    -26.055        678.873
1313  214.0    -35.055       1228.867
1314  225.0    -24.055        578.653
1315  225.0    -24.055        578.653
1316  217.0    -32.055       1027.536
1317  219.0    -30.055        903.315
1318  209.0    -40.055       1604.419
1319  204.0    -45.055       2029.971
1320  214.0    -35.055       1228.867
1321  213.0    -36.055       1299.977
1322  220.0    -29.055        844.205
1323  204.0    -45.055       2029.971
1324  184.0    -65.055       4232.179
1325  183.0    -66.055       4363.289
1326  186.0    -63.055       3975.958
1327  194.0    -55.055       3031.075
1328  175.0    -74.055       5484.173
1329  203.0    -46.055       2121.081
1330  196.0    -53.055       2814.854
1331  157.0    -92.055       8474.160
1332  176.0    -73.055       5337.062
1333  168.0    -81.055       6569.945
1334  140.0   -109.055      11893.037
1335  186.0    -63.055       3975.958
1336  198.0    -51.055       2606.633
1337  202.0    -47.055       2214.192
1338  214.0    -35.055       1228.867
1339  216.0    -33.055       1092.646
1340  210.0    -39.055       1525.309
1341  188.0    -61.055       3727.737
1342  215.0    -34.055       1159.757
1343  197.0    -52.055       2709.744
1344  191.0    -58.055       3370.406
1345  201.0    -48.055       2309.302
1346  159.0    -90.055       8109.939
1347  178.0    -71.055       5048.841
1348  175.0    -74.055       5484.173
1349  181.0    -68.055       4631.510
1350  202.0    -47.055       2214.192
1351  180.0    -69.055       4768.621
1352  175.0    -74.055       5484.173
1353  180.0    -69.055       4768.621
1354  172.0    -77.055       5937.504
1355  162.0    -87.055       7578.608
1356  181.0    -68.055       4631.510
1357  192.0    -57.055       3255.296
1358  190.0    -59.055       3487.517
1359  182.0    -67.055       4496.400
1360  181.0    -68.055       4631.510
1361  169.0    -80.055       6408.835
1362  155.0    -94.055       8846.381
1363  157.0    -92.055       8474.160
1364  148.0   -101.055      10212.153
1365  138.0   -111.055      12333.257
1366  113.0   -136.055      18511.017
1367  147.0   -102.055      10415.264
1368  159.0    -90.055       8109.939
1369  139.0   -110.055      12112.147
1370  154.0    -95.055       9035.491
1371  124.0   -125.055      15638.803
1372  140.0   -109.055      11893.037
1373  144.0   -105.055      11036.595
1374  135.0   -114.055      13008.589
1375  152.0    -97.055       9419.712
1376  147.0   -102.055      10415.264
1377  176.0    -73.055       5337.062
1378  184.0    -65.055       4232.179
1379  188.0    -61.055       3727.737
1380  182.0    -67.055       4496.400
1381  196.0    -53.055       2814.854
1382  205.0    -44.055       1940.861
1383  198.0    -51.055       2606.633
1384  172.0    -77.055       5937.504
1385  189.0    -60.055       3606.627
1386  195.0    -54.055       2921.965
1387  193.0    -56.055       3142.185
1388  205.0    -44.055       1940.861
1389  187.0    -62.055       3850.848
1390  216.0    -33.055       1092.646
1391  201.0    -48.055       2309.302
1392  245.0     -4.055         16.445
1393  236.0    -13.055        170.438
1394  222.0    -27.055        731.984
1395  220.0    -29.055        844.205
1396  222.0    -27.055        731.984
1397  230.0    -19.055        363.101
1398  261.0     11.945        142.678
1399  269.0     19.945        397.795
1400  263.0     13.945        194.457
1401  275.0     25.945        673.133
1402  271.0     21.945        481.574
1403  299.0     49.945       2494.483
1404  281.0     31.945       1020.470
1405  281.0     31.945       1020.470
1406  270.0     20.945        438.685
1407  281.0     31.945       1020.470
1408  296.0     46.945       2203.814
1409  292.0     42.945       1844.256
1410  283.0     33.945       1152.249
1411  275.0     25.945        673.133
1412  269.0     19.945        397.795
1413  274.0     24.945        622.243
1414  281.0     31.945       1020.470
1415  288.0     38.945       1516.697
1416  282.0     32.945       1085.360
1417  296.0     46.945       2203.814
1418  281.0     31.945       1020.470
1419  270.0     20.945        438.685
1420  294.0     44.945       2020.035
1421  277.0     27.945        780.912
1422  288.0     38.945       1516.697
1423  302.0     52.945       2803.152
1424  265.0     15.945        254.237
1425  259.0      9.945         98.899
1426  256.0      6.945         48.230
1427  250.0      0.945          0.893
1428  287.0     37.945       1439.808
1429  282.0     32.945       1085.360
1430  245.0     -4.055         16.445
1431  244.0     -5.055         25.555
1432  242.0     -7.055         49.776
1433  254.0      4.945         24.451
1434  278.0     28.945        837.801
1435  261.0     11.945        142.678
1436  264.0     14.945        223.347
1437  233.0    -16.055        257.769
1438  236.0    -13.055        170.438
1439  248.0     -1.055          1.113
1440  261.0     11.945        142.678
1441  265.0     15.945        254.237
1442  259.0      9.945         98.899
1443  247.0     -2.055          4.224
1444  260.0     10.945        119.789
1445  259.0      9.945         98.899
1446  233.0    -16.055        257.769
1447  243.0     -6.055         36.665
1448  245.0     -4.055         16.445
1449  239.0    -10.055        101.107
1450  245.0     -4.055         16.445
1451  249.0     -0.055          0.003
1452  257.0      7.945         63.120
1453  245.0     -4.055         16.445
1454  238.0    -11.055        122.217
1455  242.0     -7.055         49.776
1456  224.0    -25.055        627.763
1457  225.0    -24.055        578.653
1458  213.0    -36.055       1299.977
1459  247.0     -2.055          4.224
1460  250.0      0.945          0.893
1461  263.0     13.945        194.457
1462  268.0     18.945        358.905
1463  263.0     13.945        194.457
1464  246.0     -3.055          9.334
1465  267.0     17.945        322.016
1466  262.0     12.945        167.568
1467  250.0      0.945          0.893
1468  271.0     21.945        481.574
1469  288.0     38.945       1516.697
1470  276.0     26.945        726.022
1471  260.0     10.945        119.789
1472  287.0     37.945       1439.808
1473  275.0     25.945        673.133
1474  267.0     17.945        322.016
1475  285.0     35.945       1292.029
1476  297.0     47.945       2298.704
1477  279.0     29.945        896.691
1478  308.0     58.945       3474.489
1479  298.0     48.945       2395.593
1480  279.0     29.945        896.691
1481  309.0     59.945       3593.379
1482  287.0     37.945       1439.808
1483  279.0     29.945        896.691
1484  272.0     22.945        526.464
1485  282.0     32.945       1085.360
1486  267.0     17.945        322.016
1487  265.0     15.945        254.237
1488  249.0     -0.055          0.003
1489  219.0    -30.055        903.315
1490  256.0      6.945         48.230
1491  253.0      3.945         15.561
1492  232.0    -17.055        290.880
1493  231.0    -18.055        325.990
1494  239.0    -10.055        101.107
1495  235.0    -14.055        197.549
1496  244.0     -5.055         25.555
1497  260.0     10.945        119.789
1498  253.0      3.945         15.561
1499  245.0     -4.055         16.445
1500  251.0      1.945          3.782
1501  231.0    -18.055        325.990
1502  223.0    -26.055        678.873
1503  206.0    -43.055       1853.750
1504  217.0    -32.055       1027.536
1505  214.0    -35.055       1228.867
1506  182.0    -67.055       4496.400
1507  164.0    -85.055       7234.387
1508  176.0    -73.055       5337.062
1509  177.0    -72.055       5191.952
1510  144.0   -105.055      11036.595
1511  168.0    -81.055       6569.945
1512  193.0    -56.055       3142.185
1513  178.0    -71.055       5048.841
1514  184.0    -65.055       4232.179
1515  194.0    -55.055       3031.075
1516  183.0    -66.055       4363.289
1517  179.0    -70.055       4907.731
1518  188.0    -61.055       3727.737
1519  205.0    -44.055       1940.861
1520  187.0    -62.055       3850.848
1521  156.0    -93.055       8659.270
1522  178.0    -71.055       5048.841
1523  183.0    -66.055       4363.289
1524  191.0    -58.055       3370.406
1525  186.0    -63.055       3975.958
1526  181.0    -68.055       4631.510
1527  200.0    -49.055       2406.413
1528  181.0    -68.055       4631.510
1529  163.0    -86.055       7405.497
1530  161.0    -88.055       7753.718
1531  172.0    -77.055       5937.504
1532  174.0    -75.055       5633.283
1533  182.0    -67.055       4496.400
1534  170.0    -79.055       6249.725
1535  174.0    -75.055       5633.283
1536  189.0    -60.055       3606.627
1537  174.0    -75.055       5633.283
1538  171.0    -78.055       6092.614
1539  171.0    -78.055       6092.614
1540  168.0    -81.055       6569.945
1541  191.0    -58.055       3370.406
1542  198.0    -51.055       2606.633
1543  192.0    -57.055       3255.296
1544  212.0    -37.055       1373.088
1545  189.0    -60.055       3606.627
1546  174.0    -75.055       5633.283
1547  165.0    -84.055       7065.277
1548  178.0    -71.055       5048.841
1549  159.0    -90.055       8109.939
1550  175.0    -74.055       5484.173
1551  193.0    -56.055       3142.185
1552  209.0    -40.055       1604.419
1553  227.0    -22.055        486.432
1554  202.0    -47.055       2214.192
1555  210.0    -39.055       1525.309
1556  209.0    -40.055       1604.419
1557  188.0    -61.055       3727.737
1558  218.0    -31.055        964.425
1559  230.0    -19.055        363.101
1560  224.0    -25.055        627.763
1561  231.0    -18.055        325.990
1562  222.0    -27.055        731.984
1563  222.0    -27.055        731.984
1564  221.0    -28.055        787.094
1565  237.0    -12.055        145.328
1566  228.0    -21.055        443.321
1567  228.0    -21.055        443.321
1568  238.0    -11.055        122.217
1569  233.0    -16.055        257.769
1570  219.0    -30.055        903.315
1571  234.0    -15.055        226.659
1572  262.0     12.945        167.568
1573  241.0     -8.055         64.886
1574  242.0     -7.055         49.776
1575  244.0     -5.055         25.555
1576  227.0    -22.055        486.432
1577  223.0    -26.055        678.873
1578  210.0    -39.055       1525.309
1579  233.0    -16.055        257.769
1580  234.0    -15.055        226.659
1581  231.0    -18.055        325.990
1582  237.0    -12.055        145.328
1583  236.0    -13.055        170.438
1584  235.0    -14.055        197.549
1585  242.0     -7.055         49.776
1586  249.0     -0.055          0.003
1587  258.0      8.945         80.009
1588  265.0     15.945        254.237
1589  269.0     19.945        397.795
1590  247.0     -2.055          4.224
1591  237.0    -12.055        145.328
1592  246.0     -3.055          9.334
1593  243.0     -6.055         36.665
1594  248.0     -1.055          1.113
1595  259.0      9.945         98.899
1596  246.0     -3.055          9.334
1597  243.0     -6.055         36.665
1598  210.0    -39.055       1525.309
1599  205.0    -44.055       1940.861
1600  242.0     -7.055         49.776
1601  236.0    -13.055        170.438
1602  254.0      4.945         24.451
1603  259.0      9.945         98.899
1604  231.0    -18.055        325.990
1605  241.0     -8.055         64.886
1606  250.0      0.945          0.893
1607  233.0    -16.055        257.769
1608  249.0     -0.055          0.003
1609  247.0     -2.055          4.224
1610  234.0    -15.055        226.659
1611  233.0    -16.055        257.769
1612  241.0     -8.055         64.886
1613  259.0      9.945         98.899
1614  258.0      8.945         80.009
1615  232.0    -17.055        290.880
1616  238.0    -11.055        122.217
1617  243.0     -6.055         36.665
1618  234.0    -15.055        226.659
1619  225.0    -24.055        578.653
1620  213.0    -36.055       1299.977
1621  223.0    -26.055        678.873
1622  214.0    -35.055       1228.867
1623  225.0    -24.055        578.653
1624  222.0    -27.055        731.984
1625  220.0    -29.055        844.205
1626  213.0    -36.055       1299.977
1627  206.0    -43.055       1853.750
1628  211.0    -38.055       1448.198
1629  210.0    -39.055       1525.309
1630  226.0    -23.055        531.542
1631  225.0    -24.055        578.653
1632  235.0    -14.055        197.549
1633  217.0    -32.055       1027.536
1634  247.0     -2.055          4.224
1635  249.0     -0.055          0.003
1636  233.0    -16.055        257.769
1637  211.0    -38.055       1448.198
1638  229.0    -20.055        402.211
1639  225.0    -24.055        578.653
1640  212.0    -37.055       1373.088
1641  235.0    -14.055        197.549
1642  220.0    -29.055        844.205
1643  217.0    -32.055       1027.536
1644  213.0    -36.055       1299.977
1645  238.0    -11.055        122.217
1646  230.0    -19.055        363.101
1647  233.0    -16.055        257.769
1648  227.0    -22.055        486.432
1649  238.0    -11.055        122.217
1650  246.0     -3.055          9.334
1651  249.0     -0.055          0.003
1652  227.0    -22.055        486.432
1653  216.0    -33.055       1092.646
1654  229.0    -20.055        402.211
1655  234.0    -15.055        226.659
1656  216.0    -33.055       1092.646
1657  193.0    -56.055       3142.185
1658  194.0    -55.055       3031.075
1659  217.0    -32.055       1027.536
1660  213.0    -36.055       1299.977
1661  200.0    -49.055       2406.413
1662  187.0    -62.055       3850.848
1663  193.0    -56.055       3142.185
1664  193.0    -56.055       3142.185
1665  213.0    -36.055       1299.977
1666  209.0    -40.055       1604.419
1667  203.0    -46.055       2121.081
1668  211.0    -38.055       1448.198
1669  211.0    -38.055       1448.198
1670  233.0    -16.055        257.769
1671  225.0    -24.055        578.653
1672  243.0     -6.055         36.665
1673  277.0     27.945        780.912
1674  258.0      8.945         80.009
1675  245.0     -4.055         16.445
1676  250.0      0.945          0.893
1677  270.0     20.945        438.685
1678  274.0     24.945        622.243
1679  297.0     47.945       2298.704
1680  302.0     52.945       2803.152
1681  277.0     27.945        780.912
1682  269.0     19.945        397.795
1683  276.0     26.945        726.022
1684  276.0     26.945        726.022
1685  281.0     31.945       1020.470
1686  285.0     35.945       1292.029
1687  269.0     19.945        397.795
1688  271.0     21.945        481.574
1689  269.0     19.945        397.795
1690  253.0      3.945         15.561
1691  256.0      6.945         48.230
1692  244.0     -5.055         25.555
1693  244.0     -5.055         25.555
1694  252.0      2.945          8.672
1695  248.0     -1.055          1.113
1696  244.0     -5.055         25.555
1697  269.0     19.945        397.795
1698  294.0     44.945       2020.035
1699  285.0     35.945       1292.029
1700  284.0     34.945       1221.139
1701  305.0     55.945       3129.821
1702  288.0     38.945       1516.697
1703  285.0     35.945       1292.029
1704  295.0     45.945       2110.925
1705  321.0     71.945       5176.054
1706  348.0     98.945       9790.073
1707  333.0     83.945       7046.729
1708  321.0     71.945       5176.054
1709  317.0     67.945       4616.496
1710  327.0     77.945       6075.392
1711  304.0     54.945       3018.931
1712  286.0     36.945       1364.918
1713  303.0     53.945       2910.041
1714  324.0     74.945       5616.723
1715  325.0     75.945       5767.613
1716  329.0     79.945       6391.171
1717  323.0     73.945       5467.833
1718  318.0     68.945       4753.385
1719  312.0     62.945       3962.048
1720  327.0     77.945       6075.392
1721  358.0    108.945      11868.969
1722  336.0     86.945       7559.398
1723  328.0     78.945       6232.281
1724  334.0     84.945       7215.619
1725  359.0    109.945      12087.859
1726  340.0     90.945       8270.957
1727  302.0     52.945       2803.152
1728  338.0     88.945       7911.177
1729  345.0     95.945       9205.405
1730  332.0     82.945       6879.840
1731  355.0    105.945      11224.301
1732  318.0     68.945       4753.385
1733  317.0     67.945       4616.496
1734  348.0     98.945       9790.073
1735  343.0     93.945       8825.625
1736  351.0    101.945      10392.742
1737  349.0     99.945       9988.963
1738  331.0     81.945       6714.950
1739  344.0     94.945       9014.515
1740  327.0     77.945       6075.392
1741  321.0     71.945       5176.054
1742  351.0    101.945      10392.742
1743  334.0     84.945       7215.619
1744  355.0    105.945      11224.301
1745  337.0     87.945       7734.288
1746  318.0     68.945       4753.385
1747  323.0     73.945       5467.833
1748  327.0     77.945       6075.392
1749  328.0     78.945       6232.281
1750  327.0     77.945       6075.392
1751  335.0     85.945       7386.509
1752  340.0     90.945       8270.957
1753  373.0    123.945      15362.313
1754  382.0    132.945      17674.320
1755  359.0    109.945      12087.859
1756  379.0    129.945      16885.651
1757  362.0    112.945      12756.528
1758  362.0    112.945      12756.528
1759  367.0    117.945      13910.976
1760  363.0    113.945      12983.417
1761  392.0    142.945      20433.216
1762  385.0    135.945      18480.989
1763  387.0    137.945      19028.768
1764  353.0    103.945      10804.521
1765  313.0     63.945       4088.937
1766  361.0    111.945      12531.638
1767  338.0     88.945       7911.177
1768  341.0     91.945       8453.846
1769  349.0     99.945       9988.963
1770  332.0     82.945       6879.840
1771  332.0     82.945       6879.840
1772  324.0     74.945       5616.723
1773  326.0     76.945       5920.502
1774  304.0     54.945       3018.931
1775  316.0     66.945       4481.606
1776  323.0     73.945       5467.833
1777  334.0     84.945       7215.619
1778  336.0     86.945       7559.398
1779  334.0     84.945       7215.619
1780  326.0     76.945       5920.502
1781  327.0     77.945       6075.392
1782  296.0     46.945       2203.814
1783  303.0     53.945       2910.041
1784  300.0     50.945       2595.373
1785  290.0     40.945       1676.477
1786  295.0     45.945       2110.925
1787  283.0     33.945       1152.249
1788  317.0     67.945       4616.496
1789  326.0     76.945       5920.502
1790  310.0     60.945       3714.269
1791  323.0     73.945       5467.833
1792  317.0     67.945       4616.496
1793  311.0     61.945       3837.158
1794  310.0     60.945       3714.269
1795  334.0     84.945       7215.619
1796  342.0     92.945       8638.736
1797  347.0     97.945       9593.184
1798  353.0    103.945      10804.521
1799  321.0     71.945       5176.054
1800  309.0     59.945       3593.379
1801  316.0     66.945       4481.606
1802  330.0     80.945       6552.061
1803  300.0     50.945       2595.373
1804  328.0     78.945       6232.281
1805  340.0     90.945       8270.957
1806  334.0     84.945       7215.619
1807  320.0     70.945       5033.165
1808  324.0     74.945       5616.723
1809  355.0    105.945      11224.301
1810  334.0     84.945       7215.619
1811  302.0     52.945       2803.152
1812  311.0     61.945       3837.158
1813  322.0     72.945       5320.944
1814  320.0     70.945       5033.165
1815  317.0     67.945       4616.496
1816  320.0     70.945       5033.165
1817  315.0     65.945       4348.717
1818  303.0     53.945       2910.041
1819  295.0     45.945       2110.925
1820  283.0     33.945       1152.249
1821  288.0     38.945       1516.697
1822  272.0     22.945        526.464
1823  250.0      0.945          0.893
1824  261.0     11.945        142.678
1825  270.0     20.945        438.685
1826  283.0     33.945       1152.249
1827  293.0     43.945       1931.145
1828  284.0     34.945       1221.139
1829  288.0     38.945       1516.697
1830  319.0     69.945       4892.275
1831  296.0     46.945       2203.814
1832  260.0     10.945        119.789
1833  300.0     50.945       2595.373
1834  314.0     64.945       4217.827
1835  289.0     39.945       1595.587
1836  276.0     26.945        726.022
1837  302.0     52.945       2803.152
1838  308.0     58.945       3474.489
1839  307.0     57.945       3357.600
1840  293.0     43.945       1931.145
1841  284.0     34.945       1221.139
1842  298.0     48.945       2395.593
1843  286.0     36.945       1364.918
1844  303.0     53.945       2910.041
1845  278.0     28.945        837.801
1846  264.0     14.945        223.347
1847  269.0     19.945        397.795
1848  281.0     31.945       1020.470
1849  286.0     36.945       1364.918
1850  272.0     22.945        526.464
1851  265.0     15.945        254.237
1852  240.0     -9.055         81.997
1853  246.0     -3.055          9.334
1854  267.0     17.945        322.016
1855  289.0     39.945       1595.587
1856  299.0     49.945       2494.483
1857  287.0     37.945       1439.808
1858  282.0     32.945       1085.360
1859  299.0     49.945       2494.483
1860  309.0     59.945       3593.379
1861  309.0     59.945       3593.379
1862  322.0     72.945       5320.944
1863  320.0     70.945       5033.165
1864  323.0     73.945       5467.833
1865  295.0     45.945       2110.925
1866  307.0     57.945       3357.600
1867  320.0     70.945       5033.165
1868  323.0     73.945       5467.833
1869  306.0     56.945       3242.710
1870  309.0     59.945       3593.379
1871  313.0     63.945       4088.937
1872  300.0     50.945       2595.373
1873  331.0     81.945       6714.950
1874  321.0     71.945       5176.054
1875  321.0     71.945       5176.054
1876  314.0     64.945       4217.827
1877  314.0     64.945       4217.827
1878  292.0     42.945       1844.256
1879  300.0     50.945       2595.373
1880  305.0     55.945       3129.821
1881  297.0     47.945       2298.704
1882  283.0     33.945       1152.249
1883  265.0     15.945        254.237
1884  300.0     50.945       2595.373
1885  270.0     20.945        438.685
1886  268.0     18.945        358.905
1887  253.0      3.945         15.561
1888  255.0      5.945         35.341
1889  274.0     24.945        622.243
1890  245.0     -4.055         16.445
1891  247.0     -2.055          4.224
1892  272.0     22.945        526.464
1893  283.0     33.945       1152.249
1894  285.0     35.945       1292.029
1895  287.0     37.945       1439.808
1896  289.0     39.945       1595.587
1897  293.0     43.945       1931.145
1898  292.0     42.945       1844.256
1899  310.0     60.945       3714.269
1900  313.0     63.945       4088.937
1901  306.0     56.945       3242.710
1902  301.0     51.945       2698.262
1903  292.0     42.945       1844.256
1904  305.0     55.945       3129.821
1905  318.0     68.945       4753.385
1906  324.0     74.945       5616.723
1907  339.0     89.945       8090.067
1908  335.0     85.945       7386.509
1909  343.0     93.945       8825.625
1910  330.0     80.945       6552.061
1911  337.0     87.945       7734.288
1912  329.0     79.945       6391.171
1913  342.0     92.945       8638.736
1914  325.0     75.945       5767.613
1915  323.0     73.945       5467.833
1916  320.0     70.945       5033.165
1917  296.0     46.945       2203.814
1918  314.0     64.945       4217.827
1919  306.0     56.945       3242.710
1920  295.0     45.945       2110.925
1921  263.0     13.945        194.457
1922  284.0     34.945       1221.139
1923  274.0     24.945        622.243
1924  281.0     31.945       1020.470
1925  263.0     13.945        194.457
1926  257.0      7.945         63.120
1927  269.0     19.945        397.795
1928  281.0     31.945       1020.470
1929  263.0     13.945        194.457
1930  263.0     13.945        194.457
1931  298.0     48.945       2395.593
1932  298.0     48.945       2395.593
1933  299.0     49.945       2494.483
1934  282.0     32.945       1085.360
1935  274.0     24.945        622.243
1936  254.0      4.945         24.451
1937  278.0     28.945        837.801
1938  284.0     34.945       1221.139
1939  255.0      5.945         35.341
1940  263.0     13.945        194.457
1941  266.0     16.945        287.126
1942  259.0      9.945         98.899
1943  254.0      4.945         24.451
1944  272.0     22.945        526.464
1945  269.0     19.945        397.795
1946  264.0     14.945        223.347
1947  254.0      4.945         24.451
1948  245.0     -4.055         16.445
1949  272.0     22.945        526.464
1950  261.0     11.945        142.678
1951  271.0     21.945        481.574
1952  271.0     21.945        481.574
1953  258.0      8.945         80.009
1954  265.0     15.945        254.237
1955  225.0    -24.055        578.653
1956  230.0    -19.055        363.101
1957  243.0     -6.055         36.665
1958  225.0    -24.055        578.653
1959  241.0     -8.055         64.886
1960  269.0     19.945        397.795
1961  252.0      2.945          8.672
1962  263.0     13.945        194.457
1963  253.0      3.945         15.561
1964  223.0    -26.055        678.873
1965  216.0    -33.055       1092.646
1966  214.0    -35.055       1228.867
1967  223.0    -26.055        678.873
1968  220.0    -29.055        844.205
1969  238.0    -11.055        122.217
1970  235.0    -14.055        197.549
1971  223.0    -26.055        678.873
1972  225.0    -24.055        578.653
1973  221.0    -28.055        787.094
1974  215.0    -34.055       1159.757
1975  202.0    -47.055       2214.192
1976  215.0    -34.055       1159.757
1977  200.0    -49.055       2406.413
1978  213.0    -36.055       1299.977
1979  229.0    -20.055        402.211
1980  210.0    -39.055       1525.309
1981  212.0    -37.055       1373.088
1982  236.0    -13.055        170.438
1983  262.0     12.945        167.568
1984  241.0     -8.055         64.886
1985  255.0      5.945         35.341
1986  245.0     -4.055         16.445
1987  251.0      1.945          3.782
1988  243.0     -6.055         36.665
1989  229.0    -20.055        402.211
1990  239.0    -10.055        101.107
1991  233.0    -16.055        257.769
1992  231.0    -18.055        325.990
1993  233.0    -16.055        257.769
1994  237.0    -12.055        145.328
1995  227.0    -22.055        486.432
1996  234.0    -15.055        226.659
1997  224.0    -25.055        627.763
1998  229.0    -20.055        402.211
1999  258.0      8.945         80.009
2000  253.0      3.945         15.561
2001  232.0    -17.055        290.880
2002  245.0     -4.055         16.445
2003  233.0    -16.055        257.769
2004  221.0    -28.055        787.094
2005  239.0    -10.055        101.107
2006  223.0    -26.055        678.873
2007  250.0      0.945          0.893
2008  241.0     -8.055         64.886
2009  225.0    -24.055        578.653
2010  234.0    -15.055        226.659
2011  220.0    -29.055        844.205
2012  226.0    -23.055        531.542
2013  217.0    -32.055       1027.536
2014  227.0    -22.055        486.432
2015  234.0    -15.055        226.659
2016  228.0    -21.055        443.321
2017  243.0     -6.055         36.665
2018  215.0    -34.055       1159.757
2019  233.0    -16.055        257.769
2020  257.0      7.945         63.120
2021  253.0      3.945         15.561
2022  283.0     33.945       1152.249
2023  269.0     19.945        397.795
2024  251.0      1.945          3.782
2025  257.0      7.945         63.120
2026  240.0     -9.055         81.997
2027  245.0     -4.055         16.445
2028  244.0     -5.055         25.555
2029  239.0    -10.055        101.107
2030  234.0    -15.055        226.659
2031  221.0    -28.055        787.094
2032  234.0    -15.055        226.659
2033  243.0     -6.055         36.665
2034  237.0    -12.055        145.328
2035  230.0    -19.055        363.101
2036  233.0    -16.055        257.769
2037  246.0     -3.055          9.334
2038  245.0     -4.055         16.445
2039  239.0    -10.055        101.107
2040  221.0    -28.055        787.094
2041  205.0    -44.055       1940.861
2042  209.0    -40.055       1604.419
2043  213.0    -36.055       1299.977
2044  221.0    -28.055        787.094
2045  206.0    -43.055       1853.750
2046  191.0    -58.055       3370.406
2047  207.0    -42.055       1768.640
2048  195.0    -54.055       2921.965
2049  200.0    -49.055       2406.413
2050  233.0    -16.055        257.769
2051  223.0    -26.055        678.873
2052  242.0     -7.055         49.776
2053  238.0    -11.055        122.217
2054  232.0    -17.055        290.880
2055  225.0    -24.055        578.653
2056  243.0     -6.055         36.665
2057  263.0     13.945        194.457
2058  230.0    -19.055        363.101
2059  224.0    -25.055        627.763
2060  208.0    -41.055       1685.529
2061  193.0    -56.055       3142.185
2062  183.0    -66.055       4363.289
2063  163.0    -86.055       7405.497
2064  156.0    -93.055       8659.270
2065  173.0    -76.055       5784.393
2066  186.0    -63.055       3975.958
2067  187.0    -62.055       3850.848
2068  183.0    -66.055       4363.289
2069  206.0    -43.055       1853.750
2070  213.0    -36.055       1299.977
2071  193.0    -56.055       3142.185
2072  197.0    -52.055       2709.744
2073  207.0    -42.055       1768.640
2074  212.0    -37.055       1373.088
2075  189.0    -60.055       3606.627
2076  185.0    -64.055       4103.069
2077  205.0    -44.055       1940.861
2078  202.0    -47.055       2214.192
2079  202.0    -47.055       2214.192
2080  232.0    -17.055        290.880
2081  228.0    -21.055        443.321
2082  232.0    -17.055        290.880
2083  227.0    -22.055        486.432
2084  223.0    -26.055        678.873
2085  236.0    -13.055        170.438
2086  238.0    -11.055        122.217
2087  200.0    -49.055       2406.413
2088  206.0    -43.055       1853.750
2089  192.0    -57.055       3255.296
2090  190.0    -59.055       3487.517
2091  197.0    -52.055       2709.744
2092  200.0    -49.055       2406.413
2093  199.0    -50.055       2505.523
2094  198.0    -51.055       2606.633
2095  202.0    -47.055       2214.192
2096  193.0    -56.055       3142.185
2097  236.0    -13.055        170.438
2098  222.0    -27.055        731.984
2099  218.0    -31.055        964.425
2100  221.0    -28.055        787.094
2101  225.0    -24.055        578.653
2102  248.0     -1.055          1.113
2103  245.0     -4.055         16.445
2104  250.0      0.945          0.893
2105  242.0     -7.055         49.776
2106  217.0    -32.055       1027.536
2107  205.0    -44.055       1940.861
2108  200.0    -49.055       2406.413
2109  221.0    -28.055        787.094
2110  198.0    -51.055       2606.633
2111  196.0    -53.055       2814.854
2112  200.0    -49.055       2406.413
2113  204.0    -45.055       2029.971
2114  204.0    -45.055       2029.971
2115  198.0    -51.055       2606.633
2116  185.0    -64.055       4103.069
2117  192.0    -57.055       3255.296
2118  201.0    -48.055       2309.302
2119  186.0    -63.055       3975.958
2120  205.0    -44.055       1940.861
2121  212.0    -37.055       1373.088
2122  179.0    -70.055       4907.731
2123  188.0    -61.055       3727.737
2124  211.0    -38.055       1448.198
2125  198.0    -51.055       2606.633
2126  208.0    -41.055       1685.529
2127  203.0    -46.055       2121.081
2128  220.0    -29.055        844.205
2129  208.0    -41.055       1685.529
2130  206.0    -43.055       1853.750
2131  221.0    -28.055        787.094
2132  219.0    -30.055        903.315
2133  246.0     -3.055          9.334
2134  257.0      7.945         63.120
2135  238.0    -11.055        122.217
2136  232.0    -17.055        290.880
2137  246.0     -3.055          9.334
2138  261.0     11.945        142.678
2139  270.0     20.945        438.685
2140  281.0     31.945       1020.470
2141  289.0     39.945       1595.587
2142  314.0     64.945       4217.827
2143  312.0     62.945       3962.048
2144  296.0     46.945       2203.814
2145  309.0     59.945       3593.379
2146  313.0     63.945       4088.937
2147  296.0     46.945       2203.814
2148  285.0     35.945       1292.029
2149  305.0     55.945       3129.821
2150  288.0     38.945       1516.697
2151  292.0     42.945       1844.256
2152  281.0     31.945       1020.470
2153  266.0     16.945        287.126
2154  267.0     17.945        322.016
2155  270.0     20.945        438.685
2156  268.0     18.945        358.905
2157  279.0     29.945        896.691
2158  288.0     38.945       1516.697
2159  275.0     25.945        673.133
2160  269.0     19.945        397.795
2161  268.0     18.945        358.905
2162  261.0     11.945        142.678
2163  268.0     18.945        358.905
2164  275.0     25.945        673.133
2165  267.0     17.945        322.016
2166  273.0     23.945        573.353
2167  268.0     18.945        358.905
2168  258.0      8.945         80.009
2169  237.0    -12.055        145.328
2170  205.0    -44.055       1940.861
2171  199.0    -50.055       2505.523
2172  220.0    -29.055        844.205
2173  208.0    -41.055       1685.529
2174  196.0    -53.055       2814.854
2175  202.0    -47.055       2214.192
2176  227.0    -22.055        486.432
2177  260.0     10.945        119.789
2178  248.0     -1.055          1.113
2179  209.0    -40.055       1604.419
2180  196.0    -53.055       2814.854
2181  146.0   -103.055      10620.374
2182  141.0   -108.055      11675.926
2183  144.0   -105.055      11036.595
2184  132.0   -117.055      13701.920
2185  164.0    -85.055       7234.387
2186  168.0    -81.055       6569.945
2187  182.0    -67.055       4496.400
2188  207.0    -42.055       1768.640
2189  210.0    -39.055       1525.309
2190  234.0    -15.055        226.659
2191  224.0    -25.055        627.763
2192  226.0    -23.055        531.542
2193  215.0    -34.055       1159.757
2194  192.0    -57.055       3255.296
2195  219.0    -30.055        903.315
2196  221.0    -28.055        787.094
2197  204.0    -45.055       2029.971
2198  209.0    -40.055       1604.419
2199  202.0    -47.055       2214.192
2200  185.0    -64.055       4103.069
2201  209.0    -40.055       1604.419
2202  214.0    -35.055       1228.867
2203  221.0    -28.055        787.094
2204  196.0    -53.055       2814.854
2205  186.0    -63.055       3975.958
2206  197.0    -52.055       2709.744
2207  228.0    -21.055        443.321
2208  220.0    -29.055        844.205
2209  206.0    -43.055       1853.750
2210  245.0     -4.055         16.445
2211  242.0     -7.055         49.776
2212  237.0    -12.055        145.328
2213  286.0     36.945       1364.918
2214  299.0     49.945       2494.483
2215  302.0     52.945       2803.152
2216  293.0     43.945       1931.145
2217  285.0     35.945       1292.029
2218  291.0     41.945       1759.366
2219  292.0     42.945       1844.256
2220  294.0     44.945       2020.035
2221  281.0     31.945       1020.470
2222  286.0     36.945       1364.918
2223  257.0      7.945         63.120
2224  266.0     16.945        287.126
2225  259.0      9.945         98.899
2226  256.0      6.945         48.230
2227  251.0      1.945          3.782
2228  247.0     -2.055          4.224
2229  255.0      5.945         35.341
2230  249.0     -0.055          0.003
2231  228.0    -21.055        443.321
2232  228.0    -21.055        443.321
2233  242.0     -7.055         49.776
2234  226.0    -23.055        531.542
2235  205.0    -44.055       1940.861
2236  210.0    -39.055       1525.309
2237  248.0     -1.055          1.113
2238  209.0    -40.055       1604.419
2239  221.0    -28.055        787.094
2240  220.0    -29.055        844.205
2241  246.0     -3.055          9.334
2242  267.0     17.945        322.016
2243  225.0    -24.055        578.653
2244  251.0      1.945          3.782
2245  247.0     -2.055          4.224
2246  250.0      0.945          0.893
2247  260.0     10.945        119.789
2248  268.0     18.945        358.905
2249  276.0     26.945        726.022
2250  272.0     22.945        526.464
2251  274.0     24.945        622.243
2252  270.0     20.945        438.685
2253  274.0     24.945        622.243
2254  298.0     48.945       2395.593
2255  311.0     61.945       3837.158
2256  295.0     45.945       2110.925
2257  298.0     48.945       2395.593
2258  283.0     33.945       1152.249
2259  276.0     26.945        726.022
2260  314.0     64.945       4217.827
2261  349.0     99.945       9988.963
2262  379.0    129.945      16885.651
2263  365.0    115.945      13443.197
2264  367.0    117.945      13910.976
2265  365.0    115.945      13443.197
2266  335.0     85.945       7386.509
2267  349.0     99.945       9988.963
2268  351.0    101.945      10392.742
2269  338.0     88.945       7911.177
2270  360.0    110.945      12308.749
2271  365.0    115.945      13443.197
2272  353.0    103.945      10804.521
2273  317.0     67.945       4616.496
2274  312.0     62.945       3962.048
2275  300.0     50.945       2595.373
2276  279.0     29.945        896.691
2277  276.0     26.945        726.022
2278  262.0     12.945        167.568
2279  284.0     34.945       1221.139
2280  272.0     22.945        526.464
2281  264.0     14.945        223.347
2282  258.0      8.945         80.009
2283  260.0     10.945        119.789
2284  292.0     42.945       1844.256
2285  278.0     28.945        837.801
2286  253.0      3.945         15.561
2287  220.0    -29.055        844.205
2288  195.0    -54.055       2921.965
2289  185.0    -64.055       4103.069
2290  230.0    -19.055        363.101
2291  213.0    -36.055       1299.977
2292  211.0    -38.055       1448.198
2293  209.0    -40.055       1604.419
2294  233.0    -16.055        257.769
2295  228.0    -21.055        443.321
2296  226.0    -23.055        531.542
2297  241.0     -8.055         64.886
2298  214.0    -35.055       1228.867
2299  235.0    -14.055        197.549
2300  225.0    -24.055        578.653
2301  221.0    -28.055        787.094
2302  208.0    -41.055       1685.529
2303  232.0    -17.055        290.880
2304  237.0    -12.055        145.328
2305  230.0    -19.055        363.101
2306  250.0      0.945          0.893
2307  251.0      1.945          3.782
2308  260.0     10.945        119.789
2309  280.0     30.945        957.581
2310  276.0     26.945        726.022
2311  267.0     17.945        322.016
2312  267.0     17.945        322.016
2313  288.0     38.945       1516.697
2314  280.0     30.945        957.581
2315  276.0     26.945        726.022
2316  279.0     29.945        896.691
2317  274.0     24.945        622.243
2318  256.0      6.945         48.230
2319  235.0    -14.055        197.549
2320  236.0    -13.055        170.438
2321  243.0     -6.055         36.665
2322  215.0    -34.055       1159.757
2323  213.0    -36.055       1299.977
2324  227.0    -22.055        486.432
2325  224.0    -25.055        627.763
2326  219.0    -30.055        903.315
2327  204.0    -45.055       2029.971
2328  212.0    -37.055       1373.088
2329  234.0    -15.055        226.659
2330  225.0    -24.055        578.653
2331  213.0    -36.055       1299.977
2332  199.0    -50.055       2505.523
2333  216.0    -33.055       1092.646
2334  232.0    -17.055        290.880
2335  242.0     -7.055         49.776
2336  239.0    -10.055        101.107
2337  244.0     -5.055         25.555
2338  241.0     -8.055         64.886
2339  239.0    -10.055        101.107
2340  248.0     -1.055          1.113
2341  242.0     -7.055         49.776
2342  237.0    -12.055        145.328
2343  243.0     -6.055         36.665
2344  234.0    -15.055        226.659
2345  230.0    -19.055        363.101
2346  232.0    -17.055        290.880
2347  217.0    -32.055       1027.536
2348  215.0    -34.055       1159.757
2349  203.0    -46.055       2121.081
2350  197.0    -52.055       2709.744
2351  170.0    -79.055       6249.725
2352  188.0    -61.055       3727.737
2353  197.0    -52.055       2709.744
2354  208.0    -41.055       1685.529
2355  221.0    -28.055        787.094
2356  226.0    -23.055        531.542
2357  212.0    -37.055       1373.088
2358  209.0    -40.055       1604.419
2359  226.0    -23.055        531.542
2360  224.0    -25.055        627.763
2361  201.0    -48.055       2309.302
2362  192.0    -57.055       3255.296
2363  198.0    -51.055       2606.633
2364  192.0    -57.055       3255.296
2365  212.0    -37.055       1373.088
2366  200.0    -49.055       2406.413
2367  223.0    -26.055        678.873
2368  222.0    -27.055        731.984
2369  200.0    -49.055       2406.413
2370  216.0    -33.055       1092.646
2371  197.0    -52.055       2709.744
2372  189.0    -60.055       3606.627
2373  208.0    -41.055       1685.529
2374  224.0    -25.055        627.763
2375  227.0    -22.055        486.432
2376  217.0    -32.055       1027.536
2377  206.0    -43.055       1853.750
2378  191.0    -58.055       3370.406
2379  170.0    -79.055       6249.725
2380  180.0    -69.055       4768.621
2381  186.0    -63.055       3975.958
2382  187.0    -62.055       3850.848
2383  197.0    -52.055       2709.744
2384  178.0    -71.055       5048.841
2385  161.0    -88.055       7753.718
2386  184.0    -65.055       4232.179
2387  211.0    -38.055       1448.198
2388  205.0    -44.055       1940.861
2389  187.0    -62.055       3850.848
2390  181.0    -68.055       4631.510
2391  188.0    -61.055       3727.737
2392  185.0    -64.055       4103.069
2393  195.0    -54.055       2921.965
2394  196.0    -53.055       2814.854
2395  156.0    -93.055       8659.270
2396  149.0   -100.055      10011.043
2397  157.0    -92.055       8474.160
2398  151.0    -98.055       9614.822
2399  134.0   -115.055      13237.699
2400  162.0    -87.055       7578.608
2401  176.0    -73.055       5337.062
2402  161.0    -88.055       7753.718
2403  184.0    -65.055       4232.179
2404  191.0    -58.055       3370.406
2405  182.0    -67.055       4496.400
2406  183.0    -66.055       4363.289
2407  167.0    -82.055       6733.056
2408  178.0    -71.055       5048.841
2409  185.0    -64.055       4103.069
2410  212.0    -37.055       1373.088
2411  223.0    -26.055        678.873
2412  204.0    -45.055       2029.971
2413  218.0    -31.055        964.425
2414  230.0    -19.055        363.101
2415  210.0    -39.055       1525.309
2416  205.0    -44.055       1940.861
2417  214.0    -35.055       1228.867
2418  213.0    -36.055       1299.977
2419  207.0    -42.055       1768.640
2420  186.0    -63.055       3975.958
2421  221.0    -28.055        787.094
2422  226.0    -23.055        531.542
2423  227.0    -22.055        486.432
2424  225.0    -24.055        578.653
2425  204.0    -45.055       2029.971
2426  223.0    -26.055        678.873
2427  206.0    -43.055       1853.750
2428  213.0    -36.055       1299.977
2429  235.0    -14.055        197.549
2430  212.0    -37.055       1373.088
2431  234.0    -15.055        226.659
2432  241.0     -8.055         64.886
2433  227.0    -22.055        486.432
2434  218.0    -31.055        964.425
2435  219.0    -30.055        903.315
2436  236.0    -13.055        170.438
2437  244.0     -5.055         25.555
2438  250.0      0.945          0.893
2439  260.0     10.945        119.789
2440  268.0     18.945        358.905
2441  257.0      7.945         63.120
2442  270.0     20.945        438.685
2443  276.0     26.945        726.022
2444  264.0     14.945        223.347
2445  269.0     19.945        397.795
2446  252.0      2.945          8.672
2447  255.0      5.945         35.341
2448  261.0     11.945        142.678
2449  261.0     11.945        142.678
2450  261.0     11.945        142.678
2451  258.0      8.945         80.009
2452  268.0     18.945        358.905
2453  278.0     28.945        837.801
2454  272.0     22.945        526.464
2455  243.0     -6.055         36.665
2456  255.0      5.945         35.341
2457  248.0     -1.055          1.113
2458  240.0     -9.055         81.997
2459  221.0    -28.055        787.094
2460  212.0    -37.055       1373.088
2461  202.0    -47.055       2214.192
2462  197.0    -52.055       2709.744
2463  197.0    -52.055       2709.744
2464  192.0    -57.055       3255.296
2465  192.0    -57.055       3255.296
2466  186.0    -63.055       3975.958
2467  189.0    -60.055       3606.627
2468  177.0    -72.055       5191.952
2469  171.0    -78.055       6092.614
2470  149.0   -100.055      10011.043
2471  156.0    -93.055       8659.270
2472  167.0    -82.055       6733.056
2473  183.0    -66.055       4363.289
2474  193.0    -56.055       3142.185
2475  180.0    -69.055       4768.621
2476  195.0    -54.055       2921.965
2477  197.0    -52.055       2709.744
2478  200.0    -49.055       2406.413
2479  200.0    -49.055       2406.413
2480  190.0    -59.055       3487.517
2481  183.0    -66.055       4363.289
2482  199.0    -50.055       2505.523
2483  204.0    -45.055       2029.971
2484  214.0    -35.055       1228.867
2485  233.0    -16.055        257.769
2486  218.0    -31.055        964.425
2487  208.0    -41.055       1685.529
2488  197.0    -52.055       2709.744
2489  192.0    -57.055       3255.296
2490  215.0    -34.055       1159.757
2491  215.0    -34.055       1159.757
2492  211.0    -38.055       1448.198
2493  228.0    -21.055        443.321
2494  237.0    -12.055        145.328
2495  231.0    -18.055        325.990
2496  224.0    -25.055        627.763
2497  229.0    -20.055        402.211
2498  232.0    -17.055        290.880
2499  232.0    -17.055        290.880
2500  251.0      1.945          3.782
2501  246.0     -3.055          9.334
2502  236.0    -13.055        170.438
2503  227.0    -22.055        486.432
2504  229.0    -20.055        402.211
2505  217.0    -32.055       1027.536
2506  220.0    -29.055        844.205
2507  222.0    -27.055        731.984
2508  235.0    -14.055        197.549
2509  236.0    -13.055        170.438
2510  185.0    -64.055       4103.069
2511  186.0    -63.055       3975.958
2512  172.0    -77.055       5937.504
2513  171.0    -78.055       6092.614
2514  165.0    -84.055       7065.277
2515  179.0    -70.055       4907.731
2516  199.0    -50.055       2505.523
2517  196.0    -53.055       2814.854
2518  212.0    -37.055       1373.088
2519  209.0    -40.055       1604.419
2520  228.0    -21.055        443.321
2521  216.0    -33.055       1092.646
2522  220.0    -29.055        844.205
2523  214.0    -35.055       1228.867
2524  201.0    -48.055       2309.302
2525  222.0    -27.055        731.984
2526  213.0    -36.055       1299.977
2527  228.0    -21.055        443.321
2528  234.0    -15.055        226.659
2529  204.0    -45.055       2029.971
2530  207.0    -42.055       1768.640
2531  196.0    -53.055       2814.854
2532  192.0    -57.055       3255.296
2533  195.0    -54.055       2921.965
2534  215.0    -34.055       1159.757
2535  215.0    -34.055       1159.757
2536  189.0    -60.055       3606.627
2537  186.0    -63.055       3975.958
2538  183.0    -66.055       4363.289
2539  162.0    -87.055       7578.608
2540  169.0    -80.055       6408.835
2541  188.0    -61.055       3727.737
2542  173.0    -76.055       5784.393
2543  176.0    -73.055       5337.062
2544  173.0    -76.055       5784.393
2545  179.0    -70.055       4907.731
2546  176.0    -73.055       5337.062
2547  190.0    -59.055       3487.517
2548  229.0    -20.055        402.211
2549  261.0     11.945        142.678
2550  263.0     13.945        194.457
2551  264.0     14.945        223.347
2552  283.0     33.945       1152.249
2553  262.0     12.945        167.568
2554  268.0     18.945        358.905
2555  255.0      5.945         35.341
2556  251.0      1.945          3.782
2557  265.0     15.945        254.237
2558  233.0    -16.055        257.769
2559  246.0     -3.055          9.334
2560  249.0     -0.055          0.003
2561  257.0      7.945         63.120
2562  269.0     19.945        397.795
2563  273.0     23.945        573.353
2564  256.0      6.945         48.230
2565  206.0    -43.055       1853.750
2566  220.0    -29.055        844.205
2567  210.0    -39.055       1525.309
2568  210.0    -39.055       1525.309
2569  228.0    -21.055        443.321
2570  238.0    -11.055        122.217
2571  255.0      5.945         35.341
2572  241.0     -8.055         64.886
2573  216.0    -33.055       1092.646
2574  236.0    -13.055        170.438
2575  216.0    -33.055       1092.646
2576  196.0    -53.055       2814.854
2577  199.0    -50.055       2505.523
2578  219.0    -30.055        903.315
2579  216.0    -33.055       1092.646
2580  213.0    -36.055       1299.977
2581  224.0    -25.055        627.763
2582  225.0    -24.055        578.653
2583  234.0    -15.055        226.659
2584  224.0    -25.055        627.763
2585  228.0    -21.055        443.321
2586  213.0    -36.055       1299.977
2587  204.0    -45.055       2029.971
2588  187.0    -62.055       3850.848
2589  172.0    -77.055       5937.504
2590  180.0    -69.055       4768.621
2591  192.0    -57.055       3255.296
2592  191.0    -58.055       3370.406
2593  239.0    -10.055        101.107
2594  238.0    -11.055        122.217
2595  216.0    -33.055       1092.646
2596  220.0    -29.055        844.205
2597  210.0    -39.055       1525.309
2598  221.0    -28.055        787.094
2599  199.0    -50.055       2505.523
2600  196.0    -53.055       2814.854
2601  190.0    -59.055       3487.517
2602  168.0    -81.055       6569.945
2603  175.0    -74.055       5484.173
2604  188.0    -61.055       3727.737
2605  209.0    -40.055       1604.419
2606  205.0    -44.055       1940.861
2607  196.0    -53.055       2814.854
2608  182.0    -67.055       4496.400
2609  189.0    -60.055       3606.627
2610  190.0    -59.055       3487.517
2611  183.0    -66.055       4363.289
2612  197.0    -52.055       2709.744
2613  193.0    -56.055       3142.185
2614  190.0    -59.055       3487.517
2615  171.0    -78.055       6092.614
2616  203.0    -46.055       2121.081
2617  179.0    -70.055       4907.731
2618  201.0    -48.055       2309.302
2619  197.0    -52.055       2709.744
2620  203.0    -46.055       2121.081
2621  188.0    -61.055       3727.737
2622  176.0    -73.055       5337.062
2623  195.0    -54.055       2921.965
2624  203.0    -46.055       2121.081
2625  225.0    -24.055        578.653
2626  216.0    -33.055       1092.646
2627  213.0    -36.055       1299.977
2628  200.0    -49.055       2406.413
2629  201.0    -48.055       2309.302
2630  197.0    -52.055       2709.744
2631  220.0    -29.055        844.205
2632  184.0    -65.055       4232.179
2633  187.0    -62.055       3850.848
2634  200.0    -49.055       2406.413
2635  195.0    -54.055       2921.965
2636  196.0    -53.055       2814.854
2637  181.0    -68.055       4631.510
2638  171.0    -78.055       6092.614
2639  181.0    -68.055       4631.510
2640  208.0    -41.055       1685.529
2641  226.0    -23.055        531.542
2642  213.0    -36.055       1299.977
2643  166.0    -83.055       6898.166
2644  198.0    -51.055       2606.633
2645  198.0    -51.055       2606.633
2646  195.0    -54.055       2921.965
2647  213.0    -36.055       1299.977
2648  200.0    -49.055       2406.413
2649  213.0    -36.055       1299.977
2650  234.0    -15.055        226.659
2651  231.0    -18.055        325.990
2652  227.0    -22.055        486.432
2653  241.0     -8.055         64.886
2654  222.0    -27.055        731.984
2655  215.0    -34.055       1159.757
2656  212.0    -37.055       1373.088
2657  202.0    -47.055       2214.192
2658  207.0    -42.055       1768.640
2659  217.0    -32.055       1027.536
2660  210.0    -39.055       1525.309
2661  230.0    -19.055        363.101
2662  210.0    -39.055       1525.309
2663  232.0    -17.055        290.880
2664  241.0     -8.055         64.886
2665  225.0    -24.055        578.653
2666  231.0    -18.055        325.990
2667  247.0     -2.055          4.224
2668  259.0      9.945         98.899
2669  277.0     27.945        780.912
2670  287.0     37.945       1439.808
2671  255.0      5.945         35.341
2672  259.0      9.945         98.899
2673  260.0     10.945        119.789
2674  257.0      7.945         63.120
2675  261.0     11.945        142.678
2676  254.0      4.945         24.451
2677  264.0     14.945        223.347
2678  251.0      1.945          3.782
2679  257.0      7.945         63.120
2680  262.0     12.945        167.568
2681  222.0    -27.055        731.984
2682  224.0    -25.055        627.763
2683  210.0    -39.055       1525.309
2684  228.0    -21.055        443.321
2685  251.0      1.945          3.782
2686  240.0     -9.055         81.997
2687  266.0     16.945        287.126
2688  281.0     31.945       1020.470
2689  263.0     13.945        194.457
2690  276.0     26.945        726.022
2691  279.0     29.945        896.691
2692  273.0     23.945        573.353
2693  281.0     31.945       1020.470
2694  295.0     45.945       2110.925
2695  302.0     52.945       2803.152
2696  296.0     46.945       2203.814
2697  297.0     47.945       2298.704
2698  286.0     36.945       1364.918
2699  296.0     46.945       2203.814
2700  290.0     40.945       1676.477
2701  312.0     62.945       3962.048
2702  329.0     79.945       6391.171
2703  316.0     66.945       4481.606
2704  321.0     71.945       5176.054
2705  304.0     54.945       3018.931
2706  316.0     66.945       4481.606
2707  297.0     47.945       2298.704
2708  321.0     71.945       5176.054
2709  301.0     51.945       2698.262
2710  318.0     68.945       4753.385
2711  319.0     69.945       4892.275
2712  303.0     53.945       2910.041
2713  301.0     51.945       2698.262
2714  285.0     35.945       1292.029
2715  321.0     71.945       5176.054
2716  315.0     65.945       4348.717
2717  327.0     77.945       6075.392
2718  321.0     71.945       5176.054
2719  344.0     94.945       9014.515
2720  353.0    103.945      10804.521
2721  335.0     85.945       7386.509
2722  328.0     78.945       6232.281
2723  323.0     73.945       5467.833
2724  338.0     88.945       7911.177
2725  341.0     91.945       8453.846
2726  341.0     91.945       8453.846
2727  321.0     71.945       5176.054
2728  329.0     79.945       6391.171
2729  315.0     65.945       4348.717
2730  300.0     50.945       2595.373
2731  297.0     47.945       2298.704
2732  287.0     37.945       1439.808
2733  277.0     27.945        780.912
2734  278.0     28.945        837.801
2735  300.0     50.945       2595.373
2736  267.0     17.945        322.016
2737  257.0      7.945         63.120
2738  264.0     14.945        223.347
2739  266.0     16.945        287.126
2740  254.0      4.945         24.451
2741  235.0    -14.055        197.549
2742  257.0      7.945         63.120
2743  276.0     26.945        726.022
2744  291.0     41.945       1759.366
2745  295.0     45.945       2110.925
2746  272.0     22.945        526.464
2747  262.0     12.945        167.568
2748  248.0     -1.055          1.113
2749  245.0     -4.055         16.445
2750  254.0      4.945         24.451
2751  273.0     23.945        573.353
2752  271.0     21.945        481.574
2753  271.0     21.945        481.574
2754  266.0     16.945        287.126
2755  263.0     13.945        194.457
2756  260.0     10.945        119.789
2757  264.0     14.945        223.347
2758  274.0     24.945        622.243
2759  254.0      4.945         24.451
2760  257.0      7.945         63.120
2761  260.0     10.945        119.789
2762  266.0     16.945        287.126
2763  281.0     31.945       1020.470
2764  274.0     24.945        622.243
2765  282.0     32.945       1085.360
2766  267.0     17.945        322.016
2767  266.0     16.945        287.126
2768  267.0     17.945        322.016
2769  261.0     11.945        142.678
2770  267.0     17.945        322.016
2771  245.0     -4.055         16.445
2772  270.0     20.945        438.685
2773  253.0      3.945         15.561
2774  255.0      5.945         35.341
2775  258.0      8.945         80.009
2776  259.0      9.945         98.899
2777  275.0     25.945        673.133
2778  256.0      6.945         48.230
2779  272.0     22.945        526.464
2780  233.0    -16.055        257.769
2781  231.0    -18.055        325.990
2782  228.0    -21.055        443.321
2783  210.0    -39.055       1525.309
2784  225.0    -24.055        578.653
2785  229.0    -20.055        402.211
2786  237.0    -12.055        145.328
2787  235.0    -14.055        197.549
2788  236.0    -13.055        170.438
2789  217.0    -32.055       1027.536
2790  239.0    -10.055        101.107
2791  213.0    -36.055       1299.977
2792  235.0    -14.055        197.549
2793  256.0      6.945         48.230
2794  231.0    -18.055        325.990
2795  251.0      1.945          3.782
2796  229.0    -20.055        402.211
2797  242.0     -7.055         49.776
2798  235.0    -14.055        197.549
2799  213.0    -36.055       1299.977
2800  229.0    -20.055        402.211
2801  241.0     -8.055         64.886
2802  260.0     10.945        119.789
2803  270.0     20.945        438.685
2804  230.0    -19.055        363.101
2805  229.0    -20.055        402.211
2806  238.0    -11.055        122.217
2807  230.0    -19.055        363.101
2808  248.0     -1.055          1.113
2809  257.0      7.945         63.120
2810  225.0    -24.055        578.653
2811  240.0     -9.055         81.997
2812  260.0     10.945        119.789
2813  267.0     17.945        322.016
2814  247.0     -2.055          4.224
2815  244.0     -5.055         25.555
2816  268.0     18.945        358.905
2817  248.0     -1.055          1.113
2818  257.0      7.945         63.120
2819  268.0     18.945        358.905
2820  291.0     41.945       1759.366
2821  284.0     34.945       1221.139
2822  282.0     32.945       1085.360
2823  271.0     21.945        481.574
2824  267.0     17.945        322.016
2825  265.0     15.945        254.237
2826  292.0     42.945       1844.256
2827  282.0     32.945       1085.360
2828  259.0      9.945         98.899
2829  262.0     12.945        167.568
2830  258.0      8.945         80.009
2831  262.0     12.945        167.568
2832  253.0      3.945         15.561
2833  251.0      1.945          3.782
2834  236.0    -13.055        170.438
2835  243.0     -6.055         36.665
2836  234.0    -15.055        226.659
2837  235.0    -14.055        197.549
2838  229.0    -20.055        402.211
2839  229.0    -20.055        402.211
2840  235.0    -14.055        197.549
2841  225.0    -24.055        578.653
2842  203.0    -46.055       2121.081
2843  199.0    -50.055       2505.523
2844  212.0    -37.055       1373.088
2845  222.0    -27.055        731.984
2846  230.0    -19.055        363.101
2847  228.0    -21.055        443.321
2848  230.0    -19.055        363.101
2849  217.0    -32.055       1027.536
2850  245.0     -4.055         16.445
2851  242.0     -7.055         49.776
2852  238.0    -11.055        122.217
2853  252.0      2.945          8.672
2854  249.0     -0.055          0.003
2855  262.0     12.945        167.568
2856  248.0     -1.055          1.113
2857  269.0     19.945        397.795
2858  258.0      8.945         80.009
2859  260.0     10.945        119.789
2860  274.0     24.945        622.243
2861  260.0     10.945        119.789
2862  272.0     22.945        526.464
2863  263.0     13.945        194.457
2864  254.0      4.945         24.451
2865  259.0      9.945         98.899
2866  245.0     -4.055         16.445
2867  258.0      8.945         80.009
2868  276.0     26.945        726.022
2869  282.0     32.945       1085.360
2870  297.0     47.945       2298.704
2871  275.0     25.945        673.133
2872  233.0    -16.055        257.769
2873  239.0    -10.055        101.107
2874  258.0      8.945         80.009
2875  259.0      9.945         98.899
2876  255.0      5.945         35.341
2877  244.0     -5.055         25.555
2878  234.0    -15.055        226.659
2879  242.0     -7.055         49.776
2880  274.0     24.945        622.243
2881  277.0     27.945        780.912
2882  274.0     24.945        622.243
2883  287.0     37.945       1439.808
2884  287.0     37.945       1439.808
2885  266.0     16.945        287.126
2886  272.0     22.945        526.464
2887  280.0     30.945        957.581
2888  318.0     68.945       4753.385
2889  299.0     49.945       2494.483
2890  256.0      6.945         48.230
2891  291.0     41.945       1759.366
2892  275.0     25.945        673.133
2893  264.0     14.945        223.347
2894  262.0     12.945        167.568
2895  263.0     13.945        194.457
2896  253.0      3.945         15.561
2897  225.0    -24.055        578.653
2898  251.0      1.945          3.782
2899  242.0     -7.055         49.776
2900  239.0    -10.055        101.107
2901  254.0      4.945         24.451
2902  261.0     11.945        142.678
2903  274.0     24.945        622.243
2904  265.0     15.945        254.237
2905  252.0      2.945          8.672
2906  248.0     -1.055          1.113
2907  252.0      2.945          8.672
2908  275.0     25.945        673.133
2909  266.0     16.945        287.126
2910  265.0     15.945        254.237
2911  271.0     21.945        481.574
2912  279.0     29.945        896.691
2913  270.0     20.945        438.685
2914  245.0     -4.055         16.445
2915  281.0     31.945       1020.470
2916  253.0      3.945         15.561
2917  256.0      6.945         48.230
2918  247.0     -2.055          4.224
2919  244.0     -5.055         25.555
2920  259.0      9.945         98.899
2921  230.0    -19.055        363.101
2922  242.0     -7.055         49.776
2923  254.0      4.945         24.451
2924  245.0     -4.055         16.445
2925  220.0    -29.055        844.205
2926  191.0    -58.055       3370.406
2927  179.0    -70.055       4907.731
2928  182.0    -67.055       4496.400
2929  216.0    -33.055       1092.646
2930  216.0    -33.055       1092.646
2931  223.0    -26.055        678.873
2932  235.0    -14.055        197.549
2933  236.0    -13.055        170.438
2934  213.0    -36.055       1299.977
2935  212.0    -37.055       1373.088
2936  212.0    -37.055       1373.088
2937  216.0    -33.055       1092.646
2938  217.0    -32.055       1027.536
2939  211.0    -38.055       1448.198
2940  210.0    -39.055       1525.309
2941  206.0    -43.055       1853.750
2942  220.0    -29.055        844.205
2943  209.0    -40.055       1604.419
2944  203.0    -46.055       2121.081
2945  198.0    -51.055       2606.633
2946  185.0    -64.055       4103.069
2947  171.0    -78.055       6092.614
2948  194.0    -55.055       3031.075
2949  165.0    -84.055       7065.277
2950  155.0    -94.055       8846.381
2951  145.0   -104.055      10827.485
2952  154.0    -95.055       9035.491
2953  146.0   -103.055      10620.374
2954  147.0   -102.055      10415.264
2955  153.0    -96.055       9226.601
2956  151.0    -98.055       9614.822
2957  175.0    -74.055       5484.173
2958  139.0   -110.055      12112.147
2959  134.0   -115.055      13237.699
2960  131.0   -118.055      13937.030
2961  119.0   -130.055      16914.355
2962  118.0   -131.055      17175.465
2963  138.0   -111.055      12333.257
2964  151.0    -98.055       9614.822
2965  160.0    -89.055       7930.829
2966  159.0    -90.055       8109.939
2967  136.0   -113.055      12781.478
2968  143.0   -106.055      11247.705
2969  151.0    -98.055       9614.822
2970  145.0   -104.055      10827.485
2971  128.0   -121.055      14654.361
2972  136.0   -113.055      12781.478
2973  162.0    -87.055       7578.608
2974  181.0    -68.055       4631.510
2975  159.0    -90.055       8109.939
2976  170.0    -79.055       6249.725
2977  165.0    -84.055       7065.277
2978  167.0    -82.055       6733.056
2979  169.0    -80.055       6408.835
2980  158.0    -91.055       8291.049
2981  187.0    -62.055       3850.848
2982  179.0    -70.055       4907.731
2983  168.0    -81.055       6569.945
2984  168.0    -81.055       6569.945
2985  158.0    -91.055       8291.049
2986  142.0   -107.055      11460.816
2987  144.0   -105.055      11036.595
2988  148.0   -101.055      10212.153
2989  148.0   -101.055      10212.153
2990  137.0   -112.055      12556.368
2991  157.0    -92.055       8474.160
2992  148.0   -101.055      10212.153
2993  147.0   -102.055      10415.264
2994  147.0   -102.055      10415.264
2995  160.0    -89.055       7930.829
2996  155.0    -94.055       8846.381
2997  139.0   -110.055      12112.147
2998  147.0   -102.055      10415.264
2999  134.0   -115.055      13237.699
3000  135.0   -114.055      13008.589
3001  145.0   -104.055      10827.485
3002  173.0    -76.055       5784.393
3003  159.0    -90.055       8109.939
3004  172.0    -77.055       5937.504
3005  197.0    -52.055       2709.744
3006  202.0    -47.055       2214.192
3007  189.0    -60.055       3606.627
3008  188.0    -61.055       3727.737
3009  167.0    -82.055       6733.056
3010  170.0    -79.055       6249.725
3011  169.0    -80.055       6408.835
3012  179.0    -70.055       4907.731
3013  169.0    -80.055       6408.835
3014  164.0    -85.055       7234.387
3015  173.0    -76.055       5784.393
3016  156.0    -93.055       8659.270
3017  169.0    -80.055       6408.835
3018  188.0    -61.055       3727.737
3019  203.0    -46.055       2121.081
3020  197.0    -52.055       2709.744
3021  189.0    -60.055       3606.627
3022  172.0    -77.055       5937.504
3023  202.0    -47.055       2214.192
3024  213.0    -36.055       1299.977
3025  224.0    -25.055        627.763
3026  248.0     -1.055          1.113
3027  228.0    -21.055        443.321
3028  213.0    -36.055       1299.977
3029  216.0    -33.055       1092.646
3030  227.0    -22.055        486.432
3031  248.0     -1.055          1.113
3032  219.0    -30.055        903.315
3033  206.0    -43.055       1853.750
3034  218.0    -31.055        964.425
3035  239.0    -10.055        101.107
3036  249.0     -0.055          0.003
3037  242.0     -7.055         49.776
3038  255.0      5.945         35.341
3039  224.0    -25.055        627.763
3040  215.0    -34.055       1159.757
3041  222.0    -27.055        731.984
3042  225.0    -24.055        578.653
3043  223.0    -26.055        678.873
3044  226.0    -23.055        531.542
3045  221.0    -28.055        787.094
3046  197.0    -52.055       2709.744
3047  186.0    -63.055       3975.958
3048  163.0    -86.055       7405.497
3049  155.0    -94.055       8846.381
3050  166.0    -83.055       6898.166
3051  177.0    -72.055       5191.952
3052  179.0    -70.055       4907.731
3053  182.0    -67.055       4496.400
3054  185.0    -64.055       4103.069
3055  166.0    -83.055       6898.166
3056  145.0   -104.055      10827.485
3057  161.0    -88.055       7753.718
3058  160.0    -89.055       7930.829
3059  169.0    -80.055       6408.835
3060  155.0    -94.055       8846.381
3061  159.0    -90.055       8109.939
3062  146.0   -103.055      10620.374
3063  115.0   -134.055      17970.797
3064  123.0   -126.055      15889.913
3065  133.0   -116.055      13468.809
3066  156.0    -93.055       8659.270
3067  157.0    -92.055       8474.160
3068  134.0   -115.055      13237.699
3069  118.0   -131.055      17175.465
3070  149.0   -100.055      10011.043
3071  156.0    -93.055       8659.270
3072  167.0    -82.055       6733.056
3073  178.0    -71.055       5048.841
3074  130.0   -119.055      14174.141
3075  134.0   -115.055      13237.699
3076  132.0   -117.055      13701.920
3077  157.0    -92.055       8474.160
3078  152.0    -97.055       9419.712
3079  143.0   -106.055      11247.705
3080  151.0    -98.055       9614.822
3081  135.0   -114.055      13008.589
3082  137.0   -112.055      12556.368
3083  152.0    -97.055       9419.712
3084  173.0    -76.055       5784.393
3085  174.0    -75.055       5633.283
3086  197.0    -52.055       2709.744
3087  196.0    -53.055       2814.854
3088  200.0    -49.055       2406.413
3089  206.0    -43.055       1853.750
3090  194.0    -55.055       3031.075
3091  195.0    -54.055       2921.965
3092  193.0    -56.055       3142.185
3093  213.0    -36.055       1299.977
3094  175.0    -74.055       5484.173
3095  194.0    -55.055       3031.075
3096  212.0    -37.055       1373.088
3097  187.0    -62.055       3850.848
3098  205.0    -44.055       1940.861
3099  199.0    -50.055       2505.523
3100  205.0    -44.055       1940.861
3101  190.0    -59.055       3487.517
3102  205.0    -44.055       1940.861
3103  206.0    -43.055       1853.750
3104  226.0    -23.055        531.542
3105  213.0    -36.055       1299.977
3106  208.0    -41.055       1685.529
3107  210.0    -39.055       1525.309
3108  201.0    -48.055       2309.302
3109  212.0    -37.055       1373.088
3110  195.0    -54.055       2921.965
3111  220.0    -29.055        844.205
3112  202.0    -47.055       2214.192
3113  225.0    -24.055        578.653
3114  215.0    -34.055       1159.757
3115  215.0    -34.055       1159.757
3116  229.0    -20.055        402.211
3117  219.0    -30.055        903.315
3118  214.0    -35.055       1228.867
3119  230.0    -19.055        363.101
3120  242.0     -7.055         49.776
3121  236.0    -13.055        170.438
3122  239.0    -10.055        101.107
3123  253.0      3.945         15.561
3124  257.0      7.945         63.120
3125  258.0      8.945         80.009
3126  275.0     25.945        673.133
3127  253.0      3.945         15.561
3128  248.0     -1.055          1.113
3129  274.0     24.945        622.243
3130  282.0     32.945       1085.360
3131  276.0     26.945        726.022
3132  290.0     40.945       1676.477
3133  304.0     54.945       3018.931
3134  307.0     57.945       3357.600
3135  296.0     46.945       2203.814
3136  298.0     48.945       2395.593
3137  311.0     61.945       3837.158
3138  323.0     73.945       5467.833
3139  318.0     68.945       4753.385
3140  299.0     49.945       2494.483
3141  292.0     42.945       1844.256
3142  303.0     53.945       2910.041
3143  302.0     52.945       2803.152
3144  301.0     51.945       2698.262
3145  315.0     65.945       4348.717
3146  320.0     70.945       5033.165
3147  331.0     81.945       6714.950
3148  343.0     93.945       8825.625
3149  339.0     89.945       8090.067
3150  313.0     63.945       4088.937
3151  323.0     73.945       5467.833
3152  331.0     81.945       6714.950
3153  321.0     71.945       5176.054
3154  322.0     72.945       5320.944
3155  308.0     58.945       3474.489
3156  337.0     87.945       7734.288
3157  337.0     87.945       7734.288
3158  295.0     45.945       2110.925
3159  332.0     82.945       6879.840
3160  332.0     82.945       6879.840
3161  352.0    102.945      10597.632
3162  371.0    121.945      14870.534
3163  370.0    120.945      14627.645
3164  355.0    105.945      11224.301
3165  342.0     92.945       8638.736
3166  331.0     81.945       6714.950
3167  324.0     74.945       5616.723
3168  358.0    108.945      11868.969
3169  319.0     69.945       4892.275
3170  332.0     82.945       6879.840
3171  330.0     80.945       6552.061
3172  341.0     91.945       8453.846
3173  319.0     69.945       4892.275
3174  346.0     96.945       9398.294
3175  331.0     81.945       6714.950
3176  314.0     64.945       4217.827
3177  321.0     71.945       5176.054
3178  312.0     62.945       3962.048
3179  333.0     83.945       7046.729
3180  293.0     43.945       1931.145
3181  314.0     64.945       4217.827
3182  331.0     81.945       6714.950
3183  314.0     64.945       4217.827
3184  322.0     72.945       5320.944
3185  321.0     71.945       5176.054
3186  308.0     58.945       3474.489
3187  331.0     81.945       6714.950
3188  325.0     75.945       5767.613
3189  338.0     88.945       7911.177
3190  360.0    110.945      12308.749
3191  341.0     91.945       8453.846
3192  342.0     92.945       8638.736
3193  368.0    118.945      14147.865
3194  359.0    109.945      12087.859
3195  349.0     99.945       9988.963
3196  341.0     91.945       8453.846
3197  351.0    101.945      10392.742
3198  367.0    117.945      13910.976
3199  361.0    111.945      12531.638
3200  357.0    107.945      11652.080
3201  369.0    119.945      14386.755
3202  382.0    132.945      17674.320
3203  365.0    115.945      13443.197
3204  358.0    108.945      11868.969
3205  362.0    112.945      12756.528
3206  358.0    108.945      11868.969
3207  364.0    114.945      13212.307
3208  350.0    100.945      10189.853
3209  315.0     65.945       4348.717
3210  341.0     91.945       8453.846
3211  332.0     82.945       6879.840
3212  336.0     86.945       7559.398
3213  342.0     92.945       8638.736
3214  327.0     77.945       6075.392
3215  342.0     92.945       8638.736
3216  314.0     64.945       4217.827
3217  330.0     80.945       6552.061
3218  329.0     79.945       6391.171
3219  310.0     60.945       3714.269
3220  315.0     65.945       4348.717
3221  324.0     74.945       5616.723
3222  331.0     81.945       6714.950
3223  331.0     81.945       6714.950
3224  321.0     71.945       5176.054
3225  317.0     67.945       4616.496
3226  337.0     87.945       7734.288
3227  324.0     74.945       5616.723
3228  318.0     68.945       4753.385
3229  356.0    106.945      11437.190
3230  370.0    120.945      14627.645
3231  361.0    111.945      12531.638
3232  348.0     98.945       9790.073
3233  345.0     95.945       9205.405
3234  341.0     91.945       8453.846
3235  339.0     89.945       8090.067
3236  347.0     97.945       9593.184
3237  335.0     85.945       7386.509
3238  320.0     70.945       5033.165
3239  323.0     73.945       5467.833
3240  310.0     60.945       3714.269
3241  317.0     67.945       4616.496
3242  321.0     71.945       5176.054
3243  279.0     29.945        896.691
3244  290.0     40.945       1676.477
3245  285.0     35.945       1292.029
3246  275.0     25.945        673.133
3247  277.0     27.945        780.912
3248  263.0     13.945        194.457
3249  287.0     37.945       1439.808
3250  308.0     58.945       3474.489
3251  297.0     47.945       2298.704
3252  290.0     40.945       1676.477
3253  303.0     53.945       2910.041
3254  287.0     37.945       1439.808
3255  295.0     45.945       2110.925
3256  310.0     60.945       3714.269
3257  315.0     65.945       4348.717
3258  297.0     47.945       2298.704
3259  291.0     41.945       1759.366
3260  304.0     54.945       3018.931
3261  310.0     60.945       3714.269
3262  285.0     35.945       1292.029
3263  279.0     29.945        896.691
3264  288.0     38.945       1516.697
3265  296.0     46.945       2203.814
3266  319.0     69.945       4892.275
3267  281.0     31.945       1020.470
3268  269.0     19.945        397.795
3269  285.0     35.945       1292.029
3270  286.0     36.945       1364.918
3271  276.0     26.945        726.022
3272  278.0     28.945        837.801
3273  296.0     46.945       2203.814
3274  299.0     49.945       2494.483
3275  272.0     22.945        526.464
3276  286.0     36.945       1364.918
3277  314.0     64.945       4217.827
3278  321.0     71.945       5176.054
3279  305.0     55.945       3129.821
3280  294.0     44.945       2020.035
3281  295.0     45.945       2110.925
3282  274.0     24.945        622.243
3283  293.0     43.945       1931.145
3284  294.0     44.945       2020.035
3285  281.0     31.945       1020.470
3286  287.0     37.945       1439.808
3287  268.0     18.945        358.905
3288  280.0     30.945        957.581
3289  276.0     26.945        726.022
3290  290.0     40.945       1676.477
3291  289.0     39.945       1595.587
3292  276.0     26.945        726.022
3293  294.0     44.945       2020.035
3294  274.0     24.945        622.243
3295  276.0     26.945        726.022
3296  277.0     27.945        780.912
3297  264.0     14.945        223.347
3298  260.0     10.945        119.789
3299  245.0     -4.055         16.445
3300  218.0    -31.055        964.425
3301  221.0    -28.055        787.094
3302  257.0      7.945         63.120
3303  246.0     -3.055          9.334
3304  241.0     -8.055         64.886
3305  225.0    -24.055        578.653
3306  245.0     -4.055         16.445
3307  247.0     -2.055          4.224
3308  260.0     10.945        119.789
3309  267.0     17.945        322.016
3310  261.0     11.945        142.678
3311  272.0     22.945        526.464
3312  280.0     30.945        957.581
3313  274.0     24.945        622.243
3314  254.0      4.945         24.451
3315  262.0     12.945        167.568
3316  240.0     -9.055         81.997
3317  271.0     21.945        481.574
3318  286.0     36.945       1364.918
3319  283.0     33.945       1152.249
3320  294.0     44.945       2020.035
3321  300.0     50.945       2595.373
3322  272.0     22.945        526.464
3323  276.0     26.945        726.022
3324  308.0     58.945       3474.489
3325  296.0     46.945       2203.814
3326  288.0     38.945       1516.697
3327  266.0     16.945        287.126
3328  275.0     25.945        673.133
3329  288.0     38.945       1516.697
3330  263.0     13.945        194.457
3331  266.0     16.945        287.126
3332  258.0      8.945         80.009
3333  239.0    -10.055        101.107
3334  252.0      2.945          8.672
3335  273.0     23.945        573.353
3336  258.0      8.945         80.009
3337  266.0     16.945        287.126
3338  257.0      7.945         63.120
3339  266.0     16.945        287.126
3340  277.0     27.945        780.912
3341  316.0     66.945       4481.606
3342  299.0     49.945       2494.483
3343  265.0     15.945        254.237
3344  252.0      2.945          8.672
3345  264.0     14.945        223.347
3346  271.0     21.945        481.574
3347  258.0      8.945         80.009
3348  261.0     11.945        142.678
3349  240.0     -9.055         81.997
3350  229.0    -20.055        402.211
3351  224.0    -25.055        627.763
3352  241.0     -8.055         64.886
3353  219.0    -30.055        903.315
3354  220.0    -29.055        844.205
3355  218.0    -31.055        964.425
3356  218.0    -31.055        964.425
3357  216.0    -33.055       1092.646
3358  209.0    -40.055       1604.419
3359  231.0    -18.055        325.990
3360  215.0    -34.055       1159.757
3361  213.0    -36.055       1299.977
3362  219.0    -30.055        903.315
3363  218.0    -31.055        964.425
3364  235.0    -14.055        197.549
3365  218.0    -31.055        964.425
3366  195.0    -54.055       2921.965
3367  209.0    -40.055       1604.419
3368  205.0    -44.055       1940.861
3369  222.0    -27.055        731.984
3370  219.0    -30.055        903.315
3371  193.0    -56.055       3142.185
3372  200.0    -49.055       2406.413
3373  210.0    -39.055       1525.309
3374  249.0     -0.055          0.003
3375  225.0    -24.055        578.653
3376  212.0    -37.055       1373.088
3377  229.0    -20.055        402.211
3378  227.0    -22.055        486.432
3379  270.0     20.945        438.685
3380  279.0     29.945        896.691
3381  267.0     17.945        322.016
3382  274.0     24.945        622.243
3383  266.0     16.945        287.126
3384  288.0     38.945       1516.697
3385  278.0     28.945        837.801
3386  294.0     44.945       2020.035
3387  310.0     60.945       3714.269
3388  285.0     35.945       1292.029
3389  270.0     20.945        438.685
3390  290.0     40.945       1676.477
3391  323.0     73.945       5467.833
3392  352.0    102.945      10597.632
3393  345.0     95.945       9205.405
3394  330.0     80.945       6552.061
3395  327.0     77.945       6075.392
3396  340.0     90.945       8270.957
3397  341.0     91.945       8453.846
3398  344.0     94.945       9014.515
3399  366.0    116.945      13676.086
3400  366.0    116.945      13676.086
3401  367.0    117.945      13910.976
3402  367.0    117.945      13910.976
3403  372.0    122.945      15115.424
3404  341.0     91.945       8453.846
3405  357.0    107.945      11652.080
3406  362.0    112.945      12756.528
3407  344.0     94.945       9014.515
3408  364.0    114.945      13212.307
3409  361.0    111.945      12531.638
3410  341.0     91.945       8453.846
3411  336.0     86.945       7559.398
3412  363.0    113.945      12983.417
3413  341.0     91.945       8453.846
3414  358.0    108.945      11868.969
3415  369.0    119.945      14386.755
3416  349.0     99.945       9988.963
3417  342.0     92.945       8638.736
3418  352.0    102.945      10597.632
3419  340.0     90.945       8270.957
3420  310.0     60.945       3714.269
3421  325.0     75.945       5767.613
3422  330.0     80.945       6552.061
3423  334.0     84.945       7215.619
3424  302.0     52.945       2803.152
3425  300.0     50.945       2595.373
3426  291.0     41.945       1759.366
3427  315.0     65.945       4348.717
3428  311.0     61.945       3837.158
3429  269.0     19.945        397.795
3430  302.0     52.945       2803.152
3431  307.0     57.945       3357.600
3432  307.0     57.945       3357.600
3433  297.0     47.945       2298.704
3434  289.0     39.945       1595.587
3435  305.0     55.945       3129.821
3436  306.0     56.945       3242.710
3437  334.0     84.945       7215.619
3438  310.0     60.945       3714.269
3439  311.0     61.945       3837.158
3440  311.0     61.945       3837.158
3441  313.0     63.945       4088.937
3442  286.0     36.945       1364.918
3443  277.0     27.945        780.912
3444  286.0     36.945       1364.918
3445  274.0     24.945        622.243
3446  289.0     39.945       1595.587
3447  307.0     57.945       3357.600
3448  297.0     47.945       2298.704
3449  293.0     43.945       1931.145
3450  304.0     54.945       3018.931
3451  304.0     54.945       3018.931
3452  334.0     84.945       7215.619
3453  315.0     65.945       4348.717
3454  312.0     62.945       3962.048
3455  345.0     95.945       9205.405
3456  314.0     64.945       4217.827
3457  306.0     56.945       3242.710
3458  319.0     69.945       4892.275
3459  289.0     39.945       1595.587
3460  280.0     30.945        957.581
3461  296.0     46.945       2203.814
3462  308.0     58.945       3474.489
3463  329.0     79.945       6391.171
3464  333.0     83.945       7046.729
3465  312.0     62.945       3962.048
3466  308.0     58.945       3474.489
3467  301.0     51.945       2698.262
3468  311.0     61.945       3837.158
3469  319.0     69.945       4892.275
3470  317.0     67.945       4616.496
3471  303.0     53.945       2910.041
3472  297.0     47.945       2298.704
3473  267.0     17.945        322.016
3474  275.0     25.945        673.133
3475  280.0     30.945        957.581
3476  258.0      8.945         80.009
3477  269.0     19.945        397.795
3478  264.0     14.945        223.347
3479  264.0     14.945        223.347
3480  253.0      3.945         15.561
3481  260.0     10.945        119.789
3482  272.0     22.945        526.464
3483  254.0      4.945         24.451
3484  254.0      4.945         24.451
3485  253.0      3.945         15.561
3486  241.0     -8.055         64.886
3487  234.0    -15.055        226.659
3488  216.0    -33.055       1092.646
3489  226.0    -23.055        531.542
3490  207.0    -42.055       1768.640
3491  198.0    -51.055       2606.633
3492  204.0    -45.055       2029.971
3493  211.0    -38.055       1448.198
3494  223.0    -26.055        678.873
3495  212.0    -37.055       1373.088
3496  232.0    -17.055        290.880
3497  211.0    -38.055       1448.198
3498  218.0    -31.055        964.425
3499  240.0     -9.055         81.997
3500  232.0    -17.055        290.880
3501  214.0    -35.055       1228.867
3502  199.0    -50.055       2505.523
3503  218.0    -31.055        964.425
3504  217.0    -32.055       1027.536
3505  213.0    -36.055       1299.977
3506  208.0    -41.055       1685.529
3507  205.0    -44.055       1940.861
3508  240.0     -9.055         81.997
3509  250.0      0.945          0.893
3510  247.0     -2.055          4.224
3511  254.0      4.945         24.451
3512  277.0     27.945        780.912
3513  266.0     16.945        287.126
3514  260.0     10.945        119.789
3515  268.0     18.945        358.905
3516  260.0     10.945        119.789
3517  240.0     -9.055         81.997
3518  234.0    -15.055        226.659
3519  241.0     -8.055         64.886
3520  255.0      5.945         35.341
3521  274.0     24.945        622.243
3522  256.0      6.945         48.230
3523  246.0     -3.055          9.334
3524  249.0     -0.055          0.003
3525  260.0     10.945        119.789
3526  259.0      9.945         98.899
3527  235.0    -14.055        197.549
3528  240.0     -9.055         81.997
3529  251.0      1.945          3.782
3530  256.0      6.945         48.230
3531  249.0     -0.055          0.003
3532  250.0      0.945          0.893
3533  253.0      3.945         15.561
3534  275.0     25.945        673.133
3535  265.0     15.945        254.237
3536  244.0     -5.055         25.555
3537  269.0     19.945        397.795
3538  262.0     12.945        167.568
3539  266.0     16.945        287.126
3540  289.0     39.945       1595.587
3541  295.0     45.945       2110.925
3542  304.0     54.945       3018.931
3543  292.0     42.945       1844.256
3544  320.0     70.945       5033.165
3545  325.0     75.945       5767.613
3546  309.0     59.945       3593.379
3547  286.0     36.945       1364.918
3548  320.0     70.945       5033.165
3549  306.0     56.945       3242.710
3550  274.0     24.945        622.243
3551  294.0     44.945       2020.035
3552  318.0     68.945       4753.385
3553  301.0     51.945       2698.262
3554  295.0     45.945       2110.925
3555  307.0     57.945       3357.600
3556  294.0     44.945       2020.035
3557  316.0     66.945       4481.606
3558  318.0     68.945       4753.385
3559  316.0     66.945       4481.606
3560  305.0     55.945       3129.821
3561  300.0     50.945       2595.373
3562  298.0     48.945       2395.593
3563  320.0     70.945       5033.165
3564  323.0     73.945       5467.833
3565  320.0     70.945       5033.165
3566  332.0     82.945       6879.840
3567  354.0    104.945      11013.411
3568  345.0     95.945       9205.405
3569  340.0     90.945       8270.957
3570  325.0     75.945       5767.613
3571  313.0     63.945       4088.937
3572  330.0     80.945       6552.061
3573  346.0     96.945       9398.294
3574  342.0     92.945       8638.736
3575  340.0     90.945       8270.957
3576  332.0     82.945       6879.840
3577  322.0     72.945       5320.944
3578  324.0     74.945       5616.723
3579  323.0     73.945       5467.833
3580  317.0     67.945       4616.496
3581  295.0     45.945       2110.925
3582  308.0     58.945       3474.489
3583  291.0     41.945       1759.366
3584  301.0     51.945       2698.262
3585  274.0     24.945        622.243
3586  273.0     23.945        573.353
3587  273.0     23.945        573.353
3588  271.0     21.945        481.574
3589  277.0     27.945        780.912
3590  268.0     18.945        358.905
3591  283.0     33.945       1152.249
3592  274.0     24.945        622.243
3593  285.0     35.945       1292.029
3594  294.0     44.945       2020.035
3595  295.0     45.945       2110.925
3596  308.0     58.945       3474.489
3597  312.0     62.945       3962.048
3598  320.0     70.945       5033.165
3599  317.0     67.945       4616.496
3600  322.0     72.945       5320.944
3601  343.0     93.945       8825.625
3602  323.0     73.945       5467.833
3603  314.0     64.945       4217.827
3604  310.0     60.945       3714.269
3605  308.0     58.945       3474.489
3606  296.0     46.945       2203.814
3607  303.0     53.945       2910.041
3608  318.0     68.945       4753.385
3609  304.0     54.945       3018.931
3610  334.0     84.945       7215.619
3611  321.0     71.945       5176.054
3612  318.0     68.945       4753.385
3613  328.0     78.945       6232.281
3614  336.0     86.945       7559.398
3615  332.0     82.945       6879.840
3616  334.0     84.945       7215.619
3617  331.0     81.945       6714.950
3618  340.0     90.945       8270.957
3619  339.0     89.945       8090.067
3620  322.0     72.945       5320.944
3621  309.0     59.945       3593.379
3622  328.0     78.945       6232.281
3623  336.0     86.945       7559.398
3624  298.0     48.945       2395.593
3625  303.0     53.945       2910.041
3626  296.0     46.945       2203.814
3627  308.0     58.945       3474.489
3628  302.0     52.945       2803.152
3629  294.0     44.945       2020.035
3630  297.0     47.945       2298.704
3631  320.0     70.945       5033.165
3632  326.0     76.945       5920.502
3633  297.0     47.945       2298.704
3634  296.0     46.945       2203.814
3635  307.0     57.945       3357.600
3636  301.0     51.945       2698.262
3637  295.0     45.945       2110.925
3638  294.0     44.945       2020.035
3639  311.0     61.945       3837.158
3640  326.0     76.945       5920.502
3641  307.0     57.945       3357.600
3642  304.0     54.945       3018.931
3643  310.0     60.945       3714.269
3644  324.0     74.945       5616.723
3645  325.0     75.945       5767.613
3646  338.0     88.945       7911.177
3647  343.0     93.945       8825.625
3648  350.0    100.945      10189.853
3649  351.0    101.945      10392.742
3650  364.0    114.945      13212.307
3651  346.0     96.945       9398.294
3652  347.0     97.945       9593.184
3653  366.0    116.945      13676.086
3654  353.0    103.945      10804.521
3655  324.0     74.945       5616.723
3656  315.0     65.945       4348.717
3657  322.0     72.945       5320.944
3658  340.0     90.945       8270.957
3659  315.0     65.945       4348.717
3660  299.0     49.945       2494.483
3661  298.0     48.945       2395.593
3662  279.0     29.945        896.691
3663  302.0     52.945       2803.152
3664  308.0     58.945       3474.489
3665  301.0     51.945       2698.262
3666  295.0     45.945       2110.925
3667  297.0     47.945       2298.704
3668  303.0     53.945       2910.041
3669  314.0     64.945       4217.827
3670  317.0     67.945       4616.496
3671  303.0     53.945       2910.041
3672  307.0     57.945       3357.600
3673  291.0     41.945       1759.366
3674  298.0     48.945       2395.593
3675  296.0     46.945       2203.814
3676  287.0     37.945       1439.808
3677  289.0     39.945       1595.587
3678  282.0     32.945       1085.360
3679  295.0     45.945       2110.925
3680  279.0     29.945        896.691
3681  263.0     13.945        194.457
3682  264.0     14.945        223.347
3683  273.0     23.945        573.353
3684  260.0     10.945        119.789
3685  247.0     -2.055          4.224
3686  252.0      2.945          8.672
3687  243.0     -6.055         36.665
3688  239.0    -10.055        101.107
3689  247.0     -2.055          4.224
3690  248.0     -1.055          1.113
3691  257.0      7.945         63.120
3692  273.0     23.945        573.353
3693  265.0     15.945        254.237
3694  270.0     20.945        438.685
3695  284.0     34.945       1221.139
3696  269.0     19.945        397.795
3697  267.0     17.945        322.016
3698  265.0     15.945        254.237
3699  271.0     21.945        481.574
3700  276.0     26.945        726.022
3701  285.0     35.945       1292.029
3702  260.0     10.945        119.789
3703  264.0     14.945        223.347
3704  283.0     33.945       1152.249
3705  281.0     31.945       1020.470
3706  291.0     41.945       1759.366
3707  283.0     33.945       1152.249
3708  291.0     41.945       1759.366
3709  303.0     53.945       2910.041
3710  288.0     38.945       1516.697
3711  282.0     32.945       1085.360
3712  311.0     61.945       3837.158
3713  291.0     41.945       1759.366
3714  285.0     35.945       1292.029
3715  298.0     48.945       2395.593
3716  287.0     37.945       1439.808
3717  302.0     52.945       2803.152
3718  307.0     57.945       3357.600
3719  290.0     40.945       1676.477
3720  265.0     15.945        254.237
3721  284.0     34.945       1221.139
3722  286.0     36.945       1364.918
3723  258.0      8.945         80.009
3724  276.0     26.945        726.022
3725  284.0     34.945       1221.139
3726  260.0     10.945        119.789
3727  268.0     18.945        358.905
3728  262.0     12.945        167.568
3729  237.0    -12.055        145.328
3730  227.0    -22.055        486.432
3731  222.0    -27.055        731.984
3732  247.0     -2.055          4.224
3733  233.0    -16.055        257.769
3734  233.0    -16.055        257.769
3735  237.0    -12.055        145.328
3736  257.0      7.945         63.120
3737  246.0     -3.055          9.334
3738  236.0    -13.055        170.438
3739  250.0      0.945          0.893
3740  238.0    -11.055        122.217
3741  256.0      6.945         48.230
3742  251.0      1.945          3.782
3743  236.0    -13.055        170.438
3744  225.0    -24.055        578.653
3745  192.0    -57.055       3255.296
3746  223.0    -26.055        678.873
3747  209.0    -40.055       1604.419
3748  206.0    -43.055       1853.750
3749  213.0    -36.055       1299.977
3750  214.0    -35.055       1228.867
3751  237.0    -12.055        145.328
3752  223.0    -26.055        678.873
3753  206.0    -43.055       1853.750
3754  219.0    -30.055        903.315
3755  244.0     -5.055         25.555
3756  215.0    -34.055       1159.757
3757  228.0    -21.055        443.321
3758  239.0    -10.055        101.107
3759  249.0     -0.055          0.003
3760  230.0    -19.055        363.101
3761  213.0    -36.055       1299.977
3762  213.0    -36.055       1299.977
3763  225.0    -24.055        578.653
3764  209.0    -40.055       1604.419
3765  226.0    -23.055        531.542
3766  245.0     -4.055         16.445
3767  237.0    -12.055        145.328
3768  249.0     -0.055          0.003
3769  258.0      8.945         80.009
3770  254.0      4.945         24.451
3771  244.0     -5.055         25.555
3772  254.0      4.945         24.451
3773  252.0      2.945          8.672
3774  248.0     -1.055          1.113
3775  231.0    -18.055        325.990
3776  231.0    -18.055        325.990
3777  228.0    -21.055        443.321
3778  241.0     -8.055         64.886
3779  245.0     -4.055         16.445
3780  232.0    -17.055        290.880
3781  227.0    -22.055        486.432
3782  222.0    -27.055        731.984
3783  218.0    -31.055        964.425
3784  217.0    -32.055       1027.536
3785  219.0    -30.055        903.315
3786  207.0    -42.055       1768.640
3787  244.0     -5.055         25.555
3788  242.0     -7.055         49.776
3789  207.0    -42.055       1768.640
3790  181.0    -68.055       4631.510
3791  185.0    -64.055       4103.069
3792  201.0    -48.055       2309.302
3793  180.0    -69.055       4768.621
3794  175.0    -74.055       5484.173
3795  154.0    -95.055       9035.491
3796  157.0    -92.055       8474.160
3797  145.0   -104.055      10827.485
3798  132.0   -117.055      13701.920
3799  159.0    -90.055       8109.939
3800  147.0   -102.055      10415.264
3801  126.0   -123.055      15142.582
3802  123.0   -126.055      15889.913
3803  111.0   -138.055      19059.238
3804  120.0   -129.055      16655.245
3805  108.0   -141.055      19896.569
3806  146.0   -103.055      10620.374
3807  123.0   -126.055      15889.913
3808  123.0   -126.055      15889.913
3809  143.0   -106.055      11247.705
3810  109.0   -140.055      19615.459
3811   93.0   -156.055      24353.225
3812  101.0   -148.055      21920.342
3813  115.0   -134.055      17970.797
3814  108.0   -141.055      19896.569
3815   99.0   -150.055      22516.563
3816  110.0   -139.055      19336.349
3817  134.0   -115.055      13237.699
3818  138.0   -111.055      12333.257
3819  129.0   -120.055      14413.251
3820  153.0    -96.055       9226.601
3821  173.0    -76.055       5784.393
3822  152.0    -97.055       9419.712
3823  164.0    -85.055       7234.387
3824  158.0    -91.055       8291.049
3825  168.0    -81.055       6569.945
3826  151.0    -98.055       9614.822
3827  159.0    -90.055       8109.939
3828  184.0    -65.055       4232.179
3829  177.0    -72.055       5191.952
3830  174.0    -75.055       5633.283
3831  166.0    -83.055       6898.166
3832  177.0    -72.055       5191.952
3833  151.0    -98.055       9614.822
3834  184.0    -65.055       4232.179
3835  175.0    -74.055       5484.173
3836  152.0    -97.055       9419.712
3837  142.0   -107.055      11460.816
3838  143.0   -106.055      11247.705
3839  172.0    -77.055       5937.504
3840  173.0    -76.055       5784.393
3841  169.0    -80.055       6408.835
3842  174.0    -75.055       5633.283
3843  171.0    -78.055       6092.614
3844  160.0    -89.055       7930.829
3845  176.0    -73.055       5337.062
3846  159.0    -90.055       8109.939
3847  173.0    -76.055       5784.393
3848  160.0    -89.055       7930.829
3849  179.0    -70.055       4907.731
3850  183.0    -66.055       4363.289
3851  152.0    -97.055       9419.712
3852  164.0    -85.055       7234.387
3853  158.0    -91.055       8291.049
3854  187.0    -62.055       3850.848
3855  203.0    -46.055       2121.081
3856  206.0    -43.055       1853.750
3857  211.0    -38.055       1448.198
3858  209.0    -40.055       1604.419
3859  221.0    -28.055        787.094
3860  207.0    -42.055       1768.640
3861  231.0    -18.055        325.990
3862  226.0    -23.055        531.542
3863  215.0    -34.055       1159.757
3864  202.0    -47.055       2214.192
3865  204.0    -45.055       2029.971
3866  208.0    -41.055       1685.529
3867  206.0    -43.055       1853.750
3868  227.0    -22.055        486.432
3869  224.0    -25.055        627.763
3870  221.0    -28.055        787.094
3871  218.0    -31.055        964.425
3872  242.0     -7.055         49.776
3873  249.0     -0.055          0.003
3874  247.0     -2.055          4.224
3875  267.0     17.945        322.016
3876  250.0      0.945          0.893
3877  238.0    -11.055        122.217
3878  218.0    -31.055        964.425
3879  205.0    -44.055       1940.861
3880  236.0    -13.055        170.438
3881  240.0     -9.055         81.997
3882  246.0     -3.055          9.334
3883  223.0    -26.055        678.873
3884  218.0    -31.055        964.425
3885  219.0    -30.055        903.315
3886  223.0    -26.055        678.873
3887  235.0    -14.055        197.549
3888  216.0    -33.055       1092.646
3889  218.0    -31.055        964.425
3890  226.0    -23.055        531.542
3891  236.0    -13.055        170.438
3892  258.0      8.945         80.009
3893  213.0    -36.055       1299.977
3894  209.0    -40.055       1604.419
3895  216.0    -33.055       1092.646
3896  204.0    -45.055       2029.971
3897  218.0    -31.055        964.425
3898  195.0    -54.055       2921.965
3899  203.0    -46.055       2121.081
3900  190.0    -59.055       3487.517
3901  179.0    -70.055       4907.731
3902  179.0    -70.055       4907.731
3903  193.0    -56.055       3142.185
3904  201.0    -48.055       2309.302
3905  205.0    -44.055       1940.861
3906  182.0    -67.055       4496.400
3907  166.0    -83.055       6898.166
3908  171.0    -78.055       6092.614
3909  161.0    -88.055       7753.718
3910  155.0    -94.055       8846.381
3911  160.0    -89.055       7930.829
3912  170.0    -79.055       6249.725
3913  146.0   -103.055      10620.374
3914  167.0    -82.055       6733.056
3915  148.0   -101.055      10212.153
3916  168.0    -81.055       6569.945
3917  189.0    -60.055       3606.627
3918  166.0    -83.055       6898.166
3919  181.0    -68.055       4631.510
3920  177.0    -72.055       5191.952
3921  193.0    -56.055       3142.185
3922  165.0    -84.055       7065.277
3923  169.0    -80.055       6408.835
3924  191.0    -58.055       3370.406
3925  179.0    -70.055       4907.731
3926  185.0    -64.055       4103.069
3927  198.0    -51.055       2606.633
3928  193.0    -56.055       3142.185
3929  168.0    -81.055       6569.945
3930  181.0    -68.055       4631.510
3931  191.0    -58.055       3370.406
3932  192.0    -57.055       3255.296
3933  189.0    -60.055       3606.627
3934  202.0    -47.055       2214.192
3935  213.0    -36.055       1299.977
3936  216.0    -33.055       1092.646
3937  205.0    -44.055       1940.861
3938  207.0    -42.055       1768.640
3939  202.0    -47.055       2214.192
3940  198.0    -51.055       2606.633
3941  194.0    -55.055       3031.075
3942  169.0    -80.055       6408.835
3943  165.0    -84.055       7065.277
3944  172.0    -77.055       5937.504
3945  167.0    -82.055       6733.056
3946  156.0    -93.055       8659.270
3947  166.0    -83.055       6898.166
3948  140.0   -109.055      11893.037
3949  130.0   -119.055      14174.141
3950  146.0   -103.055      10620.374
3951  140.0   -109.055      11893.037
3952  152.0    -97.055       9419.712
3953  137.0   -112.055      12556.368
3954  139.0   -110.055      12112.147
3955  123.0   -126.055      15889.913
3956  130.0   -119.055      14174.141
3957  149.0   -100.055      10011.043
3958  147.0   -102.055      10415.264
3959  138.0   -111.055      12333.257
3960  157.0    -92.055       8474.160
3961  157.0    -92.055       8474.160
3962  151.0    -98.055       9614.822
3963  145.0   -104.055      10827.485
3964  152.0    -97.055       9419.712
3965  151.0    -98.055       9614.822
3966  122.0   -127.055      16143.024
3967  118.0   -131.055      17175.465
3968  117.0   -132.055      17438.576
3969  132.0   -117.055      13701.920
3970  129.0   -120.055      14413.251
3971  100.0   -149.055      22217.453
3972  115.0   -134.055      17970.797
3973  132.0   -117.055      13701.920
3974  123.0   -126.055      15889.913
3975  162.0    -87.055       7578.608
3976  176.0    -73.055       5337.062
3977  168.0    -81.055       6569.945
3978  177.0    -72.055       5191.952
3979  183.0    -66.055       4363.289
3980  162.0    -87.055       7578.608
3981  165.0    -84.055       7065.277
3982  185.0    -64.055       4103.069
3983  183.0    -66.055       4363.289
3984  214.0    -35.055       1228.867
3985  208.0    -41.055       1685.529
3986  204.0    -45.055       2029.971
3987  208.0    -41.055       1685.529
3988  210.0    -39.055       1525.309
3989  194.0    -55.055       3031.075
3990  217.0    -32.055       1027.536
3991  226.0    -23.055        531.542
3992  217.0    -32.055       1027.536
3993  225.0    -24.055        578.653
3994  198.0    -51.055       2606.633
3995  188.0    -61.055       3727.737
3996  199.0    -50.055       2505.523
3997  219.0    -30.055        903.315
3998  206.0    -43.055       1853.750
3999  212.0    -37.055       1373.088
4000  199.0    -50.055       2505.523
4001  182.0    -67.055       4496.400
4002  175.0    -74.055       5484.173
4003  186.0    -63.055       3975.958
4004  190.0    -59.055       3487.517
4005  186.0    -63.055       3975.958
4006  190.0    -59.055       3487.517
4007  187.0    -62.055       3850.848
4008  182.0    -67.055       4496.400
4009  172.0    -77.055       5937.504
4010  165.0    -84.055       7065.277
4011  161.0    -88.055       7753.718
4012  159.0    -90.055       8109.939
4013  153.0    -96.055       9226.601
4014  142.0   -107.055      11460.816
4015  172.0    -77.055       5937.504
4016  176.0    -73.055       5337.062
4017  158.0    -91.055       8291.049
4018  164.0    -85.055       7234.387
4019  143.0   -106.055      11247.705
4020  160.0    -89.055       7930.829
4021  164.0    -85.055       7234.387
4022  189.0    -60.055       3606.627
4023  179.0    -70.055       4907.731
4024  183.0    -66.055       4363.289
4025  209.0    -40.055       1604.419
4026  203.0    -46.055       2121.081
4027  213.0    -36.055       1299.977
4028  214.0    -35.055       1228.867
4029  219.0    -30.055        903.315
4030  204.0    -45.055       2029.971
4031  214.0    -35.055       1228.867
4032  223.0    -26.055        678.873
4033  219.0    -30.055        903.315
4034  234.0    -15.055        226.659
4035  233.0    -16.055        257.769
4036  241.0     -8.055         64.886
4037  242.0     -7.055         49.776
4038  239.0    -10.055        101.107
4039  245.0     -4.055         16.445
4040  255.0      5.945         35.341
4041  275.0     25.945        673.133
4042  277.0     27.945        780.912
4043  253.0      3.945         15.561
4044  237.0    -12.055        145.328
4045  226.0    -23.055        531.542
4046  228.0    -21.055        443.321
4047  271.0     21.945        481.574
4048  263.0     13.945        194.457
4049  269.0     19.945        397.795
4050  264.0     14.945        223.347
4051  259.0      9.945         98.899
4052  255.0      5.945         35.341
4053  234.0    -15.055        226.659
4054  237.0    -12.055        145.328
4055  242.0     -7.055         49.776
4056  250.0      0.945          0.893
4057  242.0     -7.055         49.776
4058  266.0     16.945        287.126
4059  270.0     20.945        438.685
4060  248.0     -1.055          1.113
4061  246.0     -3.055          9.334
4062  235.0    -14.055        197.549
4063  214.0    -35.055       1228.867
4064  189.0    -60.055       3606.627
4065  212.0    -37.055       1373.088
4066  225.0    -24.055        578.653
4067  216.0    -33.055       1092.646
4068  203.0    -46.055       2121.081
4069  221.0    -28.055        787.094
4070  207.0    -42.055       1768.640
4071  216.0    -33.055       1092.646
4072  199.0    -50.055       2505.523
4073  201.0    -48.055       2309.302
4074  240.0     -9.055         81.997
4075  235.0    -14.055        197.549
4076  248.0     -1.055          1.113
4077  248.0     -1.055          1.113
4078  250.0      0.945          0.893
4079  235.0    -14.055        197.549
4080  252.0      2.945          8.672
4081  237.0    -12.055        145.328
4082  229.0    -20.055        402.211
4083  240.0     -9.055         81.997
4084  249.0     -0.055          0.003
4085  258.0      8.945         80.009
4086  276.0     26.945        726.022
4087  279.0     29.945        896.691
4088  256.0      6.945         48.230
4089  275.0     25.945        673.133
4090  236.0    -13.055        170.438
4091  223.0    -26.055        678.873
4092  258.0      8.945         80.009
4093  267.0     17.945        322.016
4094  249.0     -0.055          0.003
4095  258.0      8.945         80.009
4096  259.0      9.945         98.899
4097  240.0     -9.055         81.997
4098  276.0     26.945        726.022
4099  243.0     -6.055         36.665
4100  267.0     17.945        322.016
4101  272.0     22.945        526.464
4102  259.0      9.945         98.899
4103  259.0      9.945         98.899
4104  259.0      9.945         98.899
4105  265.0     15.945        254.237
4106  257.0      7.945         63.120
4107  258.0      8.945         80.009
4108  266.0     16.945        287.126
4109  302.0     52.945       2803.152
4110  276.0     26.945        726.022
4111  299.0     49.945       2494.483
4112  300.0     50.945       2595.373
4113  303.0     53.945       2910.041
4114  272.0     22.945        526.464
4115  242.0     -7.055         49.776
4116  265.0     15.945        254.237
4117  251.0      1.945          3.782
4118  264.0     14.945        223.347
4119  256.0      6.945         48.230
4120  250.0      0.945          0.893
4121  251.0      1.945          3.782
4122  258.0      8.945         80.009
4123  242.0     -7.055         49.776
4124  251.0      1.945          3.782
4125  248.0     -1.055          1.113
4126  223.0    -26.055        678.873
4127  222.0    -27.055        731.984
4128  231.0    -18.055        325.990
4129  251.0      1.945          3.782
4130  249.0     -0.055          0.003
4131  233.0    -16.055        257.769
4132  239.0    -10.055        101.107
4133  233.0    -16.055        257.769
4134  216.0    -33.055       1092.646
4135  248.0     -1.055          1.113
4136  254.0      4.945         24.451
4137  253.0      3.945         15.561
4138  246.0     -3.055          9.334
4139  247.0     -2.055          4.224
4140  219.0    -30.055        903.315
4141  235.0    -14.055        197.549
4142  230.0    -19.055        363.101
4143  251.0      1.945          3.782
4144  260.0     10.945        119.789
4145  252.0      2.945          8.672
4146  269.0     19.945        397.795
4147  241.0     -8.055         64.886
4148  256.0      6.945         48.230
4149  250.0      0.945          0.893
4150  248.0     -1.055          1.113
4151  239.0    -10.055        101.107
4152  213.0    -36.055       1299.977
4153  230.0    -19.055        363.101
4154  266.0     16.945        287.126
4155  250.0      0.945          0.893
4156  259.0      9.945         98.899
4157  245.0     -4.055         16.445
4158  266.0     16.945        287.126
4159  261.0     11.945        142.678
4160  256.0      6.945         48.230
4161  262.0     12.945        167.568
4162  253.0      3.945         15.561
4163  273.0     23.945        573.353
4164  261.0     11.945        142.678
4165  260.0     10.945        119.789
4166  250.0      0.945          0.893
4167  256.0      6.945         48.230
4168  264.0     14.945        223.347
4169  274.0     24.945        622.243
4170  265.0     15.945        254.237
4171  258.0      8.945         80.009
4172  251.0      1.945          3.782
4173  252.0      2.945          8.672
4174  263.0     13.945        194.457
4175  265.0     15.945        254.237
4176  280.0     30.945        957.581
4177  288.0     38.945       1516.697
4178  308.0     58.945       3474.489
4179  309.0     59.945       3593.379
4180  314.0     64.945       4217.827
4181  315.0     65.945       4348.717
4182  310.0     60.945       3714.269
4183  297.0     47.945       2298.704
4184  285.0     35.945       1292.029
4185  283.0     33.945       1152.249
4186  300.0     50.945       2595.373
4187  323.0     73.945       5467.833
4188  322.0     72.945       5320.944
4189  311.0     61.945       3837.158
4190  314.0     64.945       4217.827
4191  333.0     83.945       7046.729
4192  316.0     66.945       4481.606
4193  328.0     78.945       6232.281
4194  314.0     64.945       4217.827
4195  304.0     54.945       3018.931
4196  320.0     70.945       5033.165
4197  311.0     61.945       3837.158
4198  314.0     64.945       4217.827
4199  321.0     71.945       5176.054
4200  320.0     70.945       5033.165
4201  314.0     64.945       4217.827
4202  312.0     62.945       3962.048
4203  322.0     72.945       5320.944
4204  313.0     63.945       4088.937
4205  297.0     47.945       2298.704
4206  282.0     32.945       1085.360
4207  267.0     17.945        322.016
4208  281.0     31.945       1020.470
4209  275.0     25.945        673.133
4210  281.0     31.945       1020.470
4211  305.0     55.945       3129.821
4212  279.0     29.945        896.691
4213  285.0     35.945       1292.029
4214  260.0     10.945        119.789
4215  258.0      8.945         80.009
4216  249.0     -0.055          0.003
4217  248.0     -1.055          1.113
4218  273.0     23.945        573.353
4219  269.0     19.945        397.795
4220  258.0      8.945         80.009
4221  277.0     27.945        780.912
4222  287.0     37.945       1439.808
4223  262.0     12.945        167.568
4224  281.0     31.945       1020.470
4225  277.0     27.945        780.912
4226  274.0     24.945        622.243
4227  254.0      4.945         24.451
4228  255.0      5.945         35.341
4229  261.0     11.945        142.678
4230  259.0      9.945         98.899
4231  271.0     21.945        481.574
4232  261.0     11.945        142.678
4233  255.0      5.945         35.341
4234  256.0      6.945         48.230
4235  238.0    -11.055        122.217
4236  246.0     -3.055          9.334
4237  223.0    -26.055        678.873
4238  220.0    -29.055        844.205
4239  229.0    -20.055        402.211
4240  236.0    -13.055        170.438
4241  219.0    -30.055        903.315
4242  228.0    -21.055        443.321
4243  232.0    -17.055        290.880
4244  219.0    -30.055        903.315
4245  223.0    -26.055        678.873
4246  238.0    -11.055        122.217
4247  237.0    -12.055        145.328
4248  245.0     -4.055         16.445
4249  264.0     14.945        223.347
4250  255.0      5.945         35.341
4251  248.0     -1.055          1.113
4252  252.0      2.945          8.672
4253  253.0      3.945         15.561
4254  242.0     -7.055         49.776
4255  266.0     16.945        287.126
4256  254.0      4.945         24.451
4257  239.0    -10.055        101.107
4258  232.0    -17.055        290.880
4259  218.0    -31.055        964.425
4260  219.0    -30.055        903.315
4261  224.0    -25.055        627.763
4262  208.0    -41.055       1685.529
4263  209.0    -40.055       1604.419
4264  208.0    -41.055       1685.529
4265  204.0    -45.055       2029.971
4266  214.0    -35.055       1228.867
4267  191.0    -58.055       3370.406
4268  202.0    -47.055       2214.192
4269  190.0    -59.055       3487.517
4270  148.0   -101.055      10212.153
4271  166.0    -83.055       6898.166
4272  153.0    -96.055       9226.601
4273  155.0    -94.055       8846.381
4274  163.0    -86.055       7405.497
4275  153.0    -96.055       9226.601
4276  174.0    -75.055       5633.283
4277  188.0    -61.055       3727.737
4278  194.0    -55.055       3031.075
4279  198.0    -51.055       2606.633
4280  204.0    -45.055       2029.971
4281  189.0    -60.055       3606.627
4282  177.0    -72.055       5191.952
4283  195.0    -54.055       2921.965
4284  192.0    -57.055       3255.296
4285  179.0    -70.055       4907.731
4286  205.0    -44.055       1940.861
4287  211.0    -38.055       1448.198
4288  216.0    -33.055       1092.646
4289  215.0    -34.055       1159.757
4290  240.0     -9.055         81.997
4291  218.0    -31.055        964.425
4292  221.0    -28.055        787.094
4293  231.0    -18.055        325.990
4294  225.0    -24.055        578.653
4295  241.0     -8.055         64.886
4296  225.0    -24.055        578.653
4297  225.0    -24.055        578.653
4298  233.0    -16.055        257.769
4299  229.0    -20.055        402.211
4300  232.0    -17.055        290.880
4301  251.0      1.945          3.782
4302  243.0     -6.055         36.665
4303  248.0     -1.055          1.113
4304  257.0      7.945         63.120
4305  252.0      2.945          8.672
4306  252.0      2.945          8.672
4307  249.0     -0.055          0.003
4308  256.0      6.945         48.230
4309  266.0     16.945        287.126
4310  261.0     11.945        142.678
4311  277.0     27.945        780.912
4312  279.0     29.945        896.691
4313  302.0     52.945       2803.152
4314  298.0     48.945       2395.593
4315  316.0     66.945       4481.606
4316  318.0     68.945       4753.385
4317  310.0     60.945       3714.269
4318  293.0     43.945       1931.145
4319  258.0      8.945         80.009
4320  245.0     -4.055         16.445
4321  220.0    -29.055        844.205
4322  236.0    -13.055        170.438
4323  226.0    -23.055        531.542
4324  245.0     -4.055         16.445
4325  250.0      0.945          0.893
4326  217.0    -32.055       1027.536
4327  239.0    -10.055        101.107
4328  225.0    -24.055        578.653
4329  254.0      4.945         24.451
4330  250.0      0.945          0.893
4331  236.0    -13.055        170.438
4332  250.0      0.945          0.893
4333  253.0      3.945         15.561
4334  275.0     25.945        673.133
4335  255.0      5.945         35.341
4336  242.0     -7.055         49.776
4337  237.0    -12.055        145.328
4338  221.0    -28.055        787.094
4339  238.0    -11.055        122.217
4340  250.0      0.945          0.893
4341  239.0    -10.055        101.107
4342  236.0    -13.055        170.438
4343  235.0    -14.055        197.549
4344  228.0    -21.055        443.321
4345  229.0    -20.055        402.211
4346  232.0    -17.055        290.880
4347  230.0    -19.055        363.101
4348  243.0     -6.055         36.665
4349  271.0     21.945        481.574
4350  275.0     25.945        673.133
4351  255.0      5.945         35.341
4352  266.0     16.945        287.126
4353  270.0     20.945        438.685
4354  270.0     20.945        438.685
4355  255.0      5.945         35.341
4356  278.0     28.945        837.801
4357  267.0     17.945        322.016
4358  280.0     30.945        957.581
4359  291.0     41.945       1759.366
4360  284.0     34.945       1221.139
4361  293.0     43.945       1931.145
4362  258.0      8.945         80.009
4363  265.0     15.945        254.237
4364  267.0     17.945        322.016
4365  282.0     32.945       1085.360
4366  284.0     34.945       1221.139
4367  288.0     38.945       1516.697
4368  305.0     55.945       3129.821
4369  301.0     51.945       2698.262
4370  306.0     56.945       3242.710
4371  286.0     36.945       1364.918
4372  280.0     30.945        957.581
4373  276.0     26.945        726.022
4374  296.0     46.945       2203.814
4375  281.0     31.945       1020.470
4376  281.0     31.945       1020.470
4377  263.0     13.945        194.457
4378  236.0    -13.055        170.438
4379  243.0     -6.055         36.665
4380  231.0    -18.055        325.990
4381  241.0     -8.055         64.886
4382  216.0    -33.055       1092.646
4383  231.0    -18.055        325.990
4384  226.0    -23.055        531.542
4385  204.0    -45.055       2029.971
4386  209.0    -40.055       1604.419
4387  231.0    -18.055        325.990
4388  212.0    -37.055       1373.088
4389  194.0    -55.055       3031.075
4390  216.0    -33.055       1092.646
4391  218.0    -31.055        964.425
4392  219.0    -30.055        903.315
4393  198.0    -51.055       2606.633
4394  210.0    -39.055       1525.309
4395  211.0    -38.055       1448.198
4396  216.0    -33.055       1092.646
4397  199.0    -50.055       2505.523
4398  207.0    -42.055       1768.640
4399  228.0    -21.055        443.321
4400  232.0    -17.055        290.880
4401  233.0    -16.055        257.769
4402  208.0    -41.055       1685.529
4403  241.0     -8.055         64.886
4404  252.0      2.945          8.672
4405  240.0     -9.055         81.997
4406  233.0    -16.055        257.769
4407  231.0    -18.055        325.990
4408  227.0    -22.055        486.432
4409  252.0      2.945          8.672
4410  274.0     24.945        622.243
4411  258.0      8.945         80.009
4412  245.0     -4.055         16.445
4413  258.0      8.945         80.009
4414  248.0     -1.055          1.113
4415  252.0      2.945          8.672
4416  251.0      1.945          3.782
4417  273.0     23.945        573.353
4418  266.0     16.945        287.126
4419  250.0      0.945          0.893
4420  270.0     20.945        438.685
4421  284.0     34.945       1221.139
4422  297.0     47.945       2298.704
4423  268.0     18.945        358.905
4424  277.0     27.945        780.912
4425  280.0     30.945        957.581
4426  278.0     28.945        837.801
4427  280.0     30.945        957.581
4428  261.0     11.945        142.678
4429  301.0     51.945       2698.262
4430  296.0     46.945       2203.814
4431  276.0     26.945        726.022
4432  277.0     27.945        780.912
4433  288.0     38.945       1516.697
4434  310.0     60.945       3714.269
4435  287.0     37.945       1439.808
4436  286.0     36.945       1364.918
4437  297.0     47.945       2298.704
4438  314.0     64.945       4217.827
4439  302.0     52.945       2803.152
4440  283.0     33.945       1152.249
4441  268.0     18.945        358.905
4442  277.0     27.945        780.912
4443  285.0     35.945       1292.029
4444  272.0     22.945        526.464
4445  283.0     33.945       1152.249
4446  261.0     11.945        142.678
4447  275.0     25.945        673.133
4448  276.0     26.945        726.022
4449  268.0     18.945        358.905
4450  258.0      8.945         80.009
4451  260.0     10.945        119.789
4452  265.0     15.945        254.237
4453  264.0     14.945        223.347
4454  254.0      4.945         24.451
4455  242.0     -7.055         49.776
4456  270.0     20.945        438.685
4457  248.0     -1.055          1.113
4458  245.0     -4.055         16.445
4459  270.0     20.945        438.685
4460  263.0     13.945        194.457
4461  274.0     24.945        622.243
4462  264.0     14.945        223.347
4463  279.0     29.945        896.691
4464  272.0     22.945        526.464
4465  282.0     32.945       1085.360
4466  272.0     22.945        526.464
4467  258.0      8.945         80.009
4468  268.0     18.945        358.905
4469  253.0      3.945         15.561
4470  284.0     34.945       1221.139
4471  278.0     28.945        837.801
4472  314.0     64.945       4217.827
4473  312.0     62.945       3962.048
4474  289.0     39.945       1595.587
4475  302.0     52.945       2803.152
4476  294.0     44.945       2020.035
4477  293.0     43.945       1931.145
4478  293.0     43.945       1931.145
4479  277.0     27.945        780.912
4480  281.0     31.945       1020.470
4481  278.0     28.945        837.801
4482  253.0      3.945         15.561
4483  264.0     14.945        223.347
4484  257.0      7.945         63.120
4485  248.0     -1.055          1.113
4486  231.0    -18.055        325.990
4487  229.0    -20.055        402.211
4488  251.0      1.945          3.782
4489  252.0      2.945          8.672
4490  240.0     -9.055         81.997
4491  220.0    -29.055        844.205
4492  218.0    -31.055        964.425
4493  211.0    -38.055       1448.198
4494  208.0    -41.055       1685.529
4495  209.0    -40.055       1604.419
4496  228.0    -21.055        443.321
4497  247.0     -2.055          4.224
4498  253.0      3.945         15.561
4499  246.0     -3.055          9.334
4500  247.0     -2.055          4.224
4501  230.0    -19.055        363.101
4502  236.0    -13.055        170.438
4503  251.0      1.945          3.782
4504  245.0     -4.055         16.445
4505  258.0      8.945         80.009
4506  267.0     17.945        322.016
4507  260.0     10.945        119.789
4508  265.0     15.945        254.237
4509  258.0      8.945         80.009
4510  295.0     45.945       2110.925
4511  299.0     49.945       2494.483
4512  304.0     54.945       3018.931
4513  305.0     55.945       3129.821
4514  310.0     60.945       3714.269
4515  338.0     88.945       7911.177
4516  315.0     65.945       4348.717
4517  313.0     63.945       4088.937
4518  314.0     64.945       4217.827
4519  334.0     84.945       7215.619
4520  360.0    110.945      12308.749
4521  344.0     94.945       9014.515
4522  364.0    114.945      13212.307
4523  369.0    119.945      14386.755
4524  358.0    108.945      11868.969
4525  365.0    115.945      13443.197
4526  371.0    121.945      14870.534
4527  363.0    113.945      12983.417
4528  379.0    129.945      16885.651
4529  373.0    123.945      15362.313
4530  362.0    112.945      12756.528
4531  375.0    125.945      15862.093
4532  356.0    106.945      11437.190
4533  375.0    125.945      15862.093
4534  364.0    114.945      13212.307
4535  355.0    105.945      11224.301
4536  365.0    115.945      13443.197
4537  341.0     91.945       8453.846
4538  358.0    108.945      11868.969
4539  364.0    114.945      13212.307
4540  338.0     88.945       7911.177
4541  342.0     92.945       8638.736
4542  335.0     85.945       7386.509
4543  351.0    101.945      10392.742
4544  335.0     85.945       7386.509
4545  314.0     64.945       4217.827
4546  312.0     62.945       3962.048
4547  319.0     69.945       4892.275
4548  324.0     74.945       5616.723
4549  317.0     67.945       4616.496
4550  329.0     79.945       6391.171
4551  304.0     54.945       3018.931
4552  311.0     61.945       3837.158
4553  332.0     82.945       6879.840
4554  330.0     80.945       6552.061
4555  329.0     79.945       6391.171
4556  311.0     61.945       3837.158
4557  315.0     65.945       4348.717
4558  309.0     59.945       3593.379
4559  316.0     66.945       4481.606
4560  331.0     81.945       6714.950
4561  350.0    100.945      10189.853
4562  338.0     88.945       7911.177
4563  349.0     99.945       9988.963
4564  343.0     93.945       8825.625
4565  317.0     67.945       4616.496
4566  333.0     83.945       7046.729
4567  313.0     63.945       4088.937
4568  336.0     86.945       7559.398
4569  319.0     69.945       4892.275
4570  332.0     82.945       6879.840
4571  308.0     58.945       3474.489
4572  307.0     57.945       3357.600
4573  309.0     59.945       3593.379
4574  310.0     60.945       3714.269
4575  329.0     79.945       6391.171
4576  330.0     80.945       6552.061
4577  337.0     87.945       7734.288
4578  326.0     76.945       5920.502
4579  339.0     89.945       8090.067
4580  330.0     80.945       6552.061
4581  330.0     80.945       6552.061
4582  329.0     79.945       6391.171
4583  321.0     71.945       5176.054
4584  307.0     57.945       3357.600
4585  310.0     60.945       3714.269
4586  316.0     66.945       4481.606
4587  312.0     62.945       3962.048
4588  337.0     87.945       7734.288
4589  357.0    107.945      11652.080
4590  347.0     97.945       9593.184
4591  329.0     79.945       6391.171
4592  325.0     75.945       5767.613
4593  293.0     43.945       1931.145
4594  312.0     62.945       3962.048
4595  328.0     78.945       6232.281
4596  319.0     69.945       4892.275
4597  296.0     46.945       2203.814
4598  317.0     67.945       4616.496
4599  329.0     79.945       6391.171
4600  318.0     68.945       4753.385
4601  276.0     26.945        726.022
4602  287.0     37.945       1439.808
4603  301.0     51.945       2698.262
4604  256.0      6.945         48.230
4605  291.0     41.945       1759.366
4606  282.0     32.945       1085.360
4607  278.0     28.945        837.801
4608  306.0     56.945       3242.710
4609  294.0     44.945       2020.035
4610  280.0     30.945        957.581
4611  281.0     31.945       1020.470
4612  269.0     19.945        397.795
4613  258.0      8.945         80.009
4614  265.0     15.945        254.237
4615  275.0     25.945        673.133
4616  247.0     -2.055          4.224
4617  268.0     18.945        358.905
4618  269.0     19.945        397.795
4619  285.0     35.945       1292.029
4620  300.0     50.945       2595.373
4621  303.0     53.945       2910.041
4622  317.0     67.945       4616.496
4623  317.0     67.945       4616.496
4624  302.0     52.945       2803.152
4625  316.0     66.945       4481.606
4626  329.0     79.945       6391.171
4627  341.0     91.945       8453.846
4628  345.0     95.945       9205.405
4629  343.0     93.945       8825.625
4630  344.0     94.945       9014.515
4631  334.0     84.945       7215.619
4632  320.0     70.945       5033.165
4633  281.0     31.945       1020.470
4634  290.0     40.945       1676.477
4635  295.0     45.945       2110.925
4636  291.0     41.945       1759.366
4637  276.0     26.945        726.022
4638  297.0     47.945       2298.704
4639  268.0     18.945        358.905
4640  265.0     15.945        254.237
4641  277.0     27.945        780.912
4642  271.0     21.945        481.574
4643  293.0     43.945       1931.145
4644  265.0     15.945        254.237
4645  273.0     23.945        573.353
4646  265.0     15.945        254.237
4647  234.0    -15.055        226.659
4648  251.0      1.945          3.782
4649  258.0      8.945         80.009
4650  254.0      4.945         24.451
4651  235.0    -14.055        197.549
4652  261.0     11.945        142.678
4653  267.0     17.945        322.016
4654  229.0    -20.055        402.211
4655  228.0    -21.055        443.321
4656  219.0    -30.055        903.315
4657  234.0    -15.055        226.659
4658  232.0    -17.055        290.880
4659  245.0     -4.055         16.445
4660  237.0    -12.055        145.328
4661  212.0    -37.055       1373.088
4662  218.0    -31.055        964.425
4663  234.0    -15.055        226.659
4664  232.0    -17.055        290.880
4665  223.0    -26.055        678.873
4666  214.0    -35.055       1228.867
4667  219.0    -30.055        903.315
4668  228.0    -21.055        443.321
4669  227.0    -22.055        486.432
4670  226.0    -23.055        531.542
4671  206.0    -43.055       1853.750
4672  218.0    -31.055        964.425
4673  234.0    -15.055        226.659
4674  241.0     -8.055         64.886
4675  222.0    -27.055        731.984
4676  202.0    -47.055       2214.192
4677  211.0    -38.055       1448.198
4678  203.0    -46.055       2121.081
4679  223.0    -26.055        678.873
4680  227.0    -22.055        486.432
4681  215.0    -34.055       1159.757
4682  209.0    -40.055       1604.419
4683  201.0    -48.055       2309.302
4684  230.0    -19.055        363.101
4685  205.0    -44.055       1940.861
4686  210.0    -39.055       1525.309
4687  214.0    -35.055       1228.867
4688  209.0    -40.055       1604.419
4689  207.0    -42.055       1768.640
4690  187.0    -62.055       3850.848
4691  179.0    -70.055       4907.731
4692  177.0    -72.055       5191.952
4693  176.0    -73.055       5337.062
4694  165.0    -84.055       7065.277
4695  158.0    -91.055       8291.049
4696  177.0    -72.055       5191.952
4697  172.0    -77.055       5937.504
4698  173.0    -76.055       5784.393
4699  180.0    -69.055       4768.621
4700  167.0    -82.055       6733.056
4701  209.0    -40.055       1604.419
4702  199.0    -50.055       2505.523
4703  209.0    -40.055       1604.419
4704  176.0    -73.055       5337.062
4705  180.0    -69.055       4768.621
4706  215.0    -34.055       1159.757
4707  226.0    -23.055        531.542
4708  234.0    -15.055        226.659
4709  210.0    -39.055       1525.309
4710  209.0    -40.055       1604.419
4711  213.0    -36.055       1299.977
4712  230.0    -19.055        363.101
4713  229.0    -20.055        402.211
4714  240.0     -9.055         81.997
4715  239.0    -10.055        101.107
4716  235.0    -14.055        197.549
4717  205.0    -44.055       1940.861
4718  224.0    -25.055        627.763
4719  256.0      6.945         48.230
4720  266.0     16.945        287.126
4721  257.0      7.945         63.120
4722  267.0     17.945        322.016
4723  264.0     14.945        223.347
4724  260.0     10.945        119.789
4725  250.0      0.945          0.893
4726  253.0      3.945         15.561
4727  256.0      6.945         48.230
4728  264.0     14.945        223.347
4729  257.0      7.945         63.120
4730  226.0    -23.055        531.542
4731  247.0     -2.055          4.224
4732  234.0    -15.055        226.659
4733  254.0      4.945         24.451
4734  236.0    -13.055        170.438
4735  235.0    -14.055        197.549
4736  232.0    -17.055        290.880
4737  224.0    -25.055        627.763
4738  229.0    -20.055        402.211
4739  211.0    -38.055       1448.198
4740  224.0    -25.055        627.763
4741  230.0    -19.055        363.101
4742  220.0    -29.055        844.205
4743  186.0    -63.055       3975.958
4744  212.0    -37.055       1373.088
4745  203.0    -46.055       2121.081
4746  194.0    -55.055       3031.075
4747  174.0    -75.055       5633.283
4748  155.0    -94.055       8846.381
4749  148.0   -101.055      10212.153
4750  138.0   -111.055      12333.257
4751  135.0   -114.055      13008.589
4752  127.0   -122.055      14897.472
4753  139.0   -110.055      12112.147
4754  142.0   -107.055      11460.816
4755  146.0   -103.055      10620.374
4756  112.0   -137.055      18784.128
4757  132.0   -117.055      13701.920
4758  129.0   -120.055      14413.251
4759  120.0   -129.055      16655.245
4760  111.0   -138.055      19059.238
4761  105.0   -144.055      20751.901
4762  147.0   -102.055      10415.264
4763  124.0   -125.055      15638.803
4764  111.0   -138.055      19059.238
4765  119.0   -130.055      16914.355
4766  129.0   -120.055      14413.251
4767  115.0   -134.055      17970.797
4768   99.0   -150.055      22516.563
4769  132.0   -117.055      13701.920
4770  118.0   -131.055      17175.465
4771  133.0   -116.055      13468.809
4772  122.0   -127.055      16143.024
4773  128.0   -121.055      14654.361
4774  141.0   -108.055      11675.926
4775  108.0   -141.055      19896.569
4776  121.0   -128.055      16398.134
4777  147.0   -102.055      10415.264
4778  144.0   -105.055      11036.595
4779  128.0   -121.055      14654.361
4780  136.0   -113.055      12781.478
4781  161.0    -88.055       7753.718
4782  166.0    -83.055       6898.166
4783  195.0    -54.055       2921.965
4784  190.0    -59.055       3487.517
4785  163.0    -86.055       7405.497
4786  169.0    -80.055       6408.835
4787  149.0   -100.055      10011.043
4788  130.0   -119.055      14174.141
4789  107.0   -142.055      20179.680
4790  105.0   -144.055      20751.901
4791  112.0   -137.055      18784.128
4792  123.0   -126.055      15889.913
4793  101.0   -148.055      21920.342
4794  122.0   -127.055      16143.024
4795  118.0   -131.055      17175.465
4796  109.0   -140.055      19615.459
4797  115.0   -134.055      17970.797
4798  141.0   -108.055      11675.926
4799  137.0   -112.055      12556.368
4800  114.0   -135.055      18239.907
4801  109.0   -140.055      19615.459
4802   95.0   -154.055      23733.005
4803   95.0   -154.055      23733.005
4804   79.0   -170.055      28918.771
4805   85.0   -164.055      26914.109
4806  140.0   -109.055      11893.037
4807  109.0   -140.055      19615.459
4808  105.0   -144.055      20751.901
4809   94.0   -155.055      24042.115
4810   96.0   -153.055      23425.894
4811  108.0   -141.055      19896.569
4812   99.0   -150.055      22516.563
4813  132.0   -117.055      13701.920
4814  138.0   -111.055      12333.257
4815  119.0   -130.055      16914.355
4816  142.0   -107.055      11460.816
4817  156.0    -93.055       8659.270
4818  130.0   -119.055      14174.141
4819  123.0   -126.055      15889.913
4820   93.0   -156.055      24353.225
4821  111.0   -138.055      19059.238
4822  101.0   -148.055      21920.342
4823  105.0   -144.055      20751.901
4824  121.0   -128.055      16398.134
4825  127.0   -122.055      14897.472
4826  114.0   -135.055      18239.907
4827  122.0   -127.055      16143.024
4828  123.0   -126.055      15889.913
4829  145.0   -104.055      10827.485
4830  141.0   -108.055      11675.926
4831  151.0    -98.055       9614.822
4832  148.0   -101.055      10212.153
4833  147.0   -102.055      10415.264
4834  169.0    -80.055       6408.835
4835  159.0    -90.055       8109.939
4836  173.0    -76.055       5784.393
4837  176.0    -73.055       5337.062
4838  185.0    -64.055       4103.069
4839  176.0    -73.055       5337.062
4840  182.0    -67.055       4496.400
4841  180.0    -69.055       4768.621
4842  189.0    -60.055       3606.627
4843  183.0    -66.055       4363.289
4844  180.0    -69.055       4768.621
4845  177.0    -72.055       5191.952
4846  173.0    -76.055       5784.393
4847  201.0    -48.055       2309.302
4848  217.0    -32.055       1027.536
4849  226.0    -23.055        531.542
4850  212.0    -37.055       1373.088
4851  236.0    -13.055        170.438
4852  207.0    -42.055       1768.640
4853  191.0    -58.055       3370.406
4854  199.0    -50.055       2505.523
4855  192.0    -57.055       3255.296
4856  176.0    -73.055       5337.062
4857  163.0    -86.055       7405.497
4858  152.0    -97.055       9419.712
4859  150.0    -99.055       9811.933
4860  169.0    -80.055       6408.835
4861  166.0    -83.055       6898.166
4862  172.0    -77.055       5937.504
4863  144.0   -105.055      11036.595
4864  148.0   -101.055      10212.153
4865  158.0    -91.055       8291.049
4866  157.0    -92.055       8474.160
4867  169.0    -80.055       6408.835
4868  160.0    -89.055       7930.829
4869  161.0    -88.055       7753.718
4870  170.0    -79.055       6249.725
4871  153.0    -96.055       9226.601
4872  186.0    -63.055       3975.958
4873  200.0    -49.055       2406.413
4874  186.0    -63.055       3975.958
4875  195.0    -54.055       2921.965
4876  193.0    -56.055       3142.185
4877  206.0    -43.055       1853.750
4878  229.0    -20.055        402.211
4879  198.0    -51.055       2606.633
4880  192.0    -57.055       3255.296
4881  198.0    -51.055       2606.633
4882  201.0    -48.055       2309.302
4883  201.0    -48.055       2309.302
4884  203.0    -46.055       2121.081
4885  210.0    -39.055       1525.309
4886  211.0    -38.055       1448.198
4887  208.0    -41.055       1685.529
4888  193.0    -56.055       3142.185
4889  204.0    -45.055       2029.971
4890  180.0    -69.055       4768.621
4891  198.0    -51.055       2606.633
4892  189.0    -60.055       3606.627
4893  184.0    -65.055       4232.179
4894  194.0    -55.055       3031.075
4895  187.0    -62.055       3850.848
4896  197.0    -52.055       2709.744
4897  199.0    -50.055       2505.523
4898  224.0    -25.055        627.763
4899  242.0     -7.055         49.776
4900  233.0    -16.055        257.769
4901  207.0    -42.055       1768.640
4902  235.0    -14.055        197.549
4903  251.0      1.945          3.782
4904  241.0     -8.055         64.886
4905  226.0    -23.055        531.542
4906  240.0     -9.055         81.997
4907  245.0     -4.055         16.445
4908  252.0      2.945          8.672
4909  261.0     11.945        142.678
4910  256.0      6.945         48.230
4911  277.0     27.945        780.912
4912  252.0      2.945          8.672
4913  242.0     -7.055         49.776
4914  251.0      1.945          3.782
4915  281.0     31.945       1020.470
4916  310.0     60.945       3714.269
4917  274.0     24.945        622.243
4918  256.0      6.945         48.230
4919  264.0     14.945        223.347
4920  276.0     26.945        726.022
4921  278.0     28.945        837.801
4922  270.0     20.945        438.685
4923  269.0     19.945        397.795
4924  247.0     -2.055          4.224
4925  220.0    -29.055        844.205
4926  245.0     -4.055         16.445
4927  257.0      7.945         63.120
4928  244.0     -5.055         25.555
4929  248.0     -1.055          1.113
4930  251.0      1.945          3.782
4931  272.0     22.945        526.464
4932  256.0      6.945         48.230
4933  237.0    -12.055        145.328
4934  233.0    -16.055        257.769
4935  218.0    -31.055        964.425
4936  230.0    -19.055        363.101
4937  223.0    -26.055        678.873
4938  221.0    -28.055        787.094
4939  229.0    -20.055        402.211
4940  213.0    -36.055       1299.977
4941  201.0    -48.055       2309.302
4942  204.0    -45.055       2029.971
4943  199.0    -50.055       2505.523
4944  187.0    -62.055       3850.848
4945  212.0    -37.055       1373.088
4946  180.0    -69.055       4768.621
4947  165.0    -84.055       7065.277
4948  176.0    -73.055       5337.062
4949  171.0    -78.055       6092.614
4950  175.0    -74.055       5484.173
4951  191.0    -58.055       3370.406
4952  196.0    -53.055       2814.854
4953  186.0    -63.055       3975.958
4954  231.0    -18.055        325.990
4955  232.0    -17.055        290.880
4956  243.0     -6.055         36.665
4957  241.0     -8.055         64.886
4958  251.0      1.945          3.782
4959  253.0      3.945         15.561
4960  256.0      6.945         48.230
4961  310.0     60.945       3714.269
4962  289.0     39.945       1595.587
4963  285.0     35.945       1292.029
4964  287.0     37.945       1439.808
4965  260.0     10.945        119.789
4966  274.0     24.945        622.243
4967  255.0      5.945         35.341
4968  270.0     20.945        438.685
4969  263.0     13.945        194.457
4970  280.0     30.945        957.581
4971  284.0     34.945       1221.139
4972  285.0     35.945       1292.029
4973  293.0     43.945       1931.145
4974  284.0     34.945       1221.139
4975  299.0     49.945       2494.483
4976  287.0     37.945       1439.808
4977  271.0     21.945        481.574
4978  275.0     25.945        673.133
4979  241.0     -8.055         64.886
4980  251.0      1.945          3.782
4981  213.0    -36.055       1299.977
4982  214.0    -35.055       1228.867
4983  249.0     -0.055          0.003
4984  246.0     -3.055          9.334
4985  246.0     -3.055          9.334
4986  243.0     -6.055         36.665
4987  271.0     21.945        481.574
4988  248.0     -1.055          1.113
4989  235.0    -14.055        197.549
4990  249.0     -0.055          0.003
4991  261.0     11.945        142.678
4992  247.0     -2.055          4.224
4993  282.0     32.945       1085.360
4994  287.0     37.945       1439.808
4995  280.0     30.945        957.581
4996  276.0     26.945        726.022
4997  264.0     14.945        223.347
4998  288.0     38.945       1516.697
4999  323.0     73.945       5467.833